idx ax ay az gx gy gz
0 2080 2048 2568 6 34 59
1 2076 2048 2568 5 35 58
2 2076 2048 2568 7 34 57
3 2076 2048 2568 7 36 56
4 2076 2048 2568 7 34 59
5 2076 2048 2568 7 33 57
6 2076 2048 2568 8 34 57
7 2076 2048 2568 6 34 58
8 2076 2048 2568 7 35 57
9 2076 2048 2568 7 34 58
10 2076 2048 2568 7 35 58
11 2076 2048 2568 5 33 57
12 2076 2048 2568 6 36 60
13 2076 2048 2568 7 34 59
14 2076 2048 2568 5 33 58
15 2076 2048 2568 6 34 60
16 2076 2044 2568 7 34 58
17 2076 2044 2568 8 36 58
18 2076 2044 2568 7 33 57
19 2076 2048 2568 8 34 58
20 2076 2044 2568 8 35 58
21 2076 2048 2568 8 36 57
22 2076 2048 2568 7 35 58
23 2076 2048 2568 7 33 57
24 2076 2048 2568 7 33 58
25 2076 2048 2568 6 33 57
26 2076 2048 2568 8 34 58
27 2076 2048 2572 6 34 59
28 2076 2048 2568 7 35 59
29 2076 2048 2568 5 33 58
30 2076 2048 2572 7 35 58
31 2076 2048 2572 6 34 59
32 2076 2048 2572 5 34 59
33 2076 2048 2568 7 35 58
34 2076 2048 2568 8 34 59
35 2076 2048 2568 7 34 56
36 2076 2048 2568 6 34 57
37 2076 2048 2568 6 32 57
38 2076 2048 2568 7 33 58
39 2076 2048 2568 7 35 57
40 2076 2048 2568 7 35 59
41 2076 2048 2568 6 33 56
42 2076 2048 2568 7 33 59
43 2076 2048 2568 7 34 58
44 2076 2048 2568 6 35 57
45 2076 2048 2568 6 32 57
46 2076 2048 2568 8 36 58
47 2076 2048 2568 7 34 57
48 2076 2048 2568 5 32 56
49 2076 2048 2568 7 36 58
50 2076 2048 2568 6 33 57
51 2076 2048 2568 8 33 56
52 2076 2048 2568 7 34 56
53 2076 2048 2568 7 34 57
54 2076 2048 2568 7 33 58
55 2076 2048 2568 7 33 57
56 2076 2048 2568 6 34 59
57 2076 2048 2568 7 34 58
58 2076 2048 2568 8 34 57
59 2076 2048 2568 6 33 59
60 2076 2048 2568 8 34 59
61 2076 2048 2568 8 34 59
62 2076 2048 2568 6 36 57
63 2076 2048 2568 7 33 58
64 2076 2048 2568 8 33 58
65 2076 2048 2568 7 33 59
66 2076 2048 2568 6 33 57
67 2076 2048 2568 7 35 57
68 2080 2048 2568 8 36 58
69 2076 2048 2568 7 34 58
70 2076 2048 2568 7 37 57
71 2076 2048 2568 5 35 59
72 2076 2048 2568 7 34 59
73 2076 2048 2568 5 31 58
74 2076 2048 2568 7 33 57
75 2076 2048 2568 8 34 58
76 2076 2048 2568 7 34 59
77 2076 2048 2568 9 32 57
78 2076 2048 2568 7 32 60
79 2076 2048 2568 7 36 58
80 2076 2048 2568 6 35 57
81 2076 2048 2568 7 33 59
82 2076 2048 2572 5 33 58
83 2076 2048 2572 6 36 57
84 2076 2044 2572 7 34 57
85 2076 2044 2572 7 33 55
86 2076 2044 2572 8 36 57
87 2076 2044 2572 6 35 57
88 2076 2044 2572 8 35 57
89 2076 2044 2568 9 35 57
90 2076 2048 2568 7 34 57
91 2076 2048 2568 5 34 58
92 2076 2048 2568 8 32 57
93 2076 2048 2568 7 34 58
94 2076 2048 2568 7 35 59
95 2076 2048 2568 7 34 58
96 2076 2048 2568 7 34 57
97 2076 2048 2568 7 33 58
98 2076 2044 2568 8 34 56
99 2076 2044 2568 7 34 58
100 2076 2044 2568 7 34 58
101 2076 2048 2568 6 32 57
102 2076 2044 2568 7 33 59
103 2076 2044 2568 8 34 57
104 2076 2044 2568 7 35 59
105 2076 2044 2568 7 34 58
106 2076 2044 2568 6 34 57
107 2076 2044 2568 8 35 56
108 2076 2044 2568 7 32 59
109 2076 2044 2568 8 35 57
110 2076 2044 2568 5 32 57
111 2076 2044 2568 7 34 60
112 2076 2044 2568 6 33 57
113 2076 2044 2568 6 33 58
114 2076 2044 2568 4 31 57
115 2076 2044 2568 7 33 57
116 2076 2044 2568 7 33 57
117 2076 2044 2568 6 34 57
118 2076 2044 2568 7 33 56
119 2076 2044 2568 6 33 56
120 2076 2044 2568 7 35 57
121 2076 2044 2568 7 35 58
122 2076 2044 2568 8 34 57
123 2076 2044 2568 7 33 57
124 2076 2044 2568 6 35 57
125 2076 2044 2568 5 34 56
126 2076 2044 2568 9 34 59
127 2076 2044 2568 7 34 58
128 2076 2044 2568 6 34 58
129 2076 2044 2568 6 36 57
130 2076 2048 2568 9 34 57
131 2076 2048 2568 7 36 56
132 2076 2048 2568 7 35 56
133 2076 2048 2572 7 33 58
134 2076 2048 2568 6 35 58
135 2076 2048 2568 7 35 57
136 2076 2048 2568 6 32 57
137 2076 2048 2568 6 33 58
138 2076 2048 2568 6 34 57
139 2076 2048 2568 7 33 57
140 2076 2048 2568 7 35 58
141 2076 2048 2564 6 33 59
142 2076 2048 2564 6 36 57
143 2076 2048 2564 7 33 58
144 2076 2048 2564 8 33 56
145 2076 2048 2564 7 34 57
146 2076 2048 2564 6 34 58
147 2076 2048 2564 6 33 58
148 2076 2048 2564 6 35 58
149 2076 2048 2564 5 34 58
150 2076 2048 2564 6 35 58
151 2076 2048 2564 7 37 57
152 2076 2048 2568 8 37 57
153 2076 2048 2564 7 32 56
154 2076 2048 2564 7 33 57
155 2076 2048 2564 7 35 56
156 2076 2048 2564 7 32 57
157 2076 2048 2564 8 34 57
158 2076 2048 2564 8 33 57
159 2076 2048 2564 7 33 57
160 2076 2048 2564 5 34 57
161 2076 2048 2564 6 34 57
162 2076 2048 2564 8 34 58
163 2076 2044 2564 5 34 59
164 2076 2044 2568 7 33 58
165 2076 2044 2568 7 34 58
166 2076 2044 2568 8 36 56
167 2076 2044 2568 9 33 58
168 2076 2044 2568 8 35 57
169 2076 2044 2568 8 34 58
170 2076 2048 2568 9 34 58
171 2076 2048 2568 5 35 57
172 2076 2048 2568 7 33 58
173 2076 2048 2568 7 34 56
174 2076 2048 2568 5 33 59
175 2072 2048 2568 5 36 58
176 2072 2048 2568 7 35 58
177 2072 2048 2568 4 34 58
178 2072 2048 2564 7 34 58
179 2072 2048 2564 7 34 58
180 2076 2048 2564 7 35 57
181 2076 2044 2564 6 32 59
182 2076 2044 2564 5 33 58
183 2076 2048 2564 6 36 58
184 2076 2048 2568 6 32 58
185 2076 2044 2568 6 35 56
186 2076 2048 2568 4 31 58
187 2076 2048 2568 9 33 56
188 2076 2048 2568 8 35 59
189 2076 2048 2568 6 35 56
190 2076 2048 2568 8 33 57
191 2076 2048 2572 8 33 57
192 2076 2048 2568 8 35 60
193 2076 2048 2568 5 34 58
194 2076 2048 2568 6 34 58
195 2076 2048 2568 6 34 60
196 2076 2048 2568 8 34 57
197 2076 2048 2568 7 33 57
198 2076 2048 2568 8 34 58
199 2076 2048 2568 7 35 59
200 2076 2048 2572 8 38 58
201 2076 2048 2572 5 33 57
202 2076 2048 2572 7 34 57
203 2076 2048 2572 4 34 57
204 2076 2048 2572 5 36 57
205 2076 2048 2568 6 35 56
206 2076 2048 2568 7 37 57
207 2076 2048 2568 5 34 58
208 2076 2048 2568 6 35 57
209 2076 2048 2568 7 32 58
210 2076 2048 2568 8 32 58
211 2076 2048 2568 6 35 59
212 2076 2048 2568 8 34 57
213 2076 2048 2568 6 34 58
214 2076 2048 2568 5 35 58
215 2076 2048 2568 6 34 57
216 2076 2048 2568 6 35 58
217 2076 2048 2572 5 33 59
218 2076 2048 2572 7 35 59
219 2076 2048 2568 6 35 58
220 2076 2048 2568 7 32 58
221 2076 2048 2568 7 33 58
222 2076 2048 2568 5 34 59
223 2076 2048 2568 7 34 58
224 2076 2048 2568 6 34 57
225 2076 2048 2568 6 34 57
226 2076 2048 2568 6 32 57
227 2076 2048 2568 9 34 58
228 2076 2048 2568 6 35 57
229 2076 2048 2568 7 35 57
230 2076 2048 2568 6 33 58
231 2076 2048 2568 6 34 57
232 2076 2048 2568 7 34 58
233 2076 2048 2568 7 31 57
234 2076 2048 2568 6 31 57
235 2076 2048 2568 5 32 57
236 2076 2048 2568 9 36 57
237 2076 2048 2568 6 31 58
238 2076 2048 2568 7 37 57
239 2076 2048 2568 6 35 59
240 2076 2048 2568 5 34 58
241 2076 2048 2568 6 36 58
242 2076 2048 2568 6 35 59
243 2076 2048 2568 6 34 56
244 2076 2044 2568 7 33 58
245 2076 2048 2568 8 34 58
246 2076 2048 2568 7 34 58
247 2076 2048 2568 7 34 57
248 2076 2048 2568 6 34 58
249 2076 2044 2568 8 35 56
250 2076 2044 2568 7 33 57
251 2076 2044 2568 7 35 57
252 2076 2048 2568 7 35 57
253 2076 2048 2568 5 34 56
254 2076 2048 2568 7 34 58
255 2072 2048 2568 6 34 57
256 2072 2048 2568 8 33 58
257 2072 2048 2568 7 34 59
258 2072 2044 2568 5 33 57
259 2076 2048 2568 8 33 59
260 2076 2048 2568 7 33 56
261 2076 2044 2568 6 33 57
262 2076 2044 2564 7 33 57
263 2076 2044 2564 6 35 57
264 2076 2044 2568 8 35 57
265 2076 2044 2568 7 33 57
266 2076 2044 2568 8 34 58
267 2076 2044 2568 6 32 57
268 2076 2048 2568 6 35 57
269 2076 2048 2568 7 33 58
270 2076 2048 2568 7 32 56
271 2076 2048 2568 9 33 57
272 2076 2048 2568 7 35 59
273 2076 2048 2568 7 33 58
274 2076 2048 2568 5 34 57
275 2076 2048 2568 7 33 57
276 2076 2048 2568 7 33 58
277 2076 2048 2568 5 34 56
278 2076 2048 2568 6 35 57
279 2076 2048 2568 7 32 57
280 2076 2048 2568 7 35 58
281 2076 2048 2568 8 34 59
282 2076 2048 2568 8 33 59
283 2076 2048 2568 8 33 57
284 2076 2048 2568 7 36 56
285 2076 2048 2568 9 32 58
286 2076 2048 2568 4 35 58
287 2076 2048 2568 8 33 58
288 2076 2048 2568 7 35 58
289 2076 2048 2568 6 34 57
290 2076 2048 2568 6 33 57
291 2076 2048 2568 7 33 56
292 2076 2048 2568 7 34 58
293 2076 2048 2568 7 34 57
294 2076 2044 2568 8 34 57
295 2076 2048 2568 6 33 58
296 2076 2048 2568 7 35 57
297 2076 2048 2568 5 35 60
298 2076 2048 2568 6 34 58
299 2076 2048 2568 6 34 57
300 2076 2048 2568 6 33 57
301 2076 2048 2568 7 34 56
302 2076 2048 2568 7 34 59
303 2076 2048 2568 7 35 58
304 2076 2048 2568 6 34 59
305 2076 2048 2568 7 35 58
306 2076 2048 2568 8 34 58
307 2076 2048 2568 6 33 58
308 2076 2048 2564 7 35 57
309 2076 2048 2568 6 33 57
310 2076 2048 2568 6 32 58
311 2076 2048 2568 6 35 57
312 2076 2048 2568 7 35 58
313 2076 2048 2568 6 34 57
314 2076 2048 2568 6 32 57
315 2076 2048 2568 4 34 58
316 2076 2048 2568 7 36 59
317 2076 2048 2568 7 35 57
318 2076 2048 2568 6 34 58
319 2076 2048 2568 6 34 56
320 2076 2048 2568 7 33 57
321 2076 2048 2568 7 36 57
322 2076 2048 2568 8 34 58
323 2076 2048 2568 7 33 58
324 2076 2048 2568 6 34 57
325 2076 2048 2568 6 34 59
326 2076 2048 2568 6 32 57
327 2076 2048 2568 9 32 58
328 2076 2048 2568 6 34 56
329 2076 2048 2568 7 35 56
330 2076 2048 2568 7 33 57
331 2076 2048 2568 7 32 58
332 2076 2048 2568 8 34 57
333 2076 2048 2568 6 36 57
334 2076 2048 2568 7 35 57
335 2076 2048 2564 6 30 58
336 2076 2048 2564 6 34 59
337 2076 2048 2564 8 34 59
338 2076 2048 2564 6 34 58
339 2076 2048 2564 7 34 59
340 2076 2048 2564 6 35 59
341 2076 2048 2564 5 34 58
342 2076 2048 2564 7 34 58
343 2076 2048 2564 7 33 58
344 2076 2048 2568 8 36 56
345 2076 2048 2568 5 34 56
346 2076 2048 2568 5 32 58
347 2076 2048 2568 9 34 57
348 2076 2048 2568 8 33 57
349 2076 2048 2568 6 36 57
350 2076 2048 2568 7 33 58
351 2076 2048 2568 7 33 58
352 2076 2048 2568 9 35 58
353 2076 2048 2568 7 35 58
354 2072 2048 2568 5 33 58
355 2076 2048 2568 5 33 58
356 2076 2048 2568 5 32 56
357 2076 2048 2568 7 35 58
358 2076 2048 2568 6 33 59
359 2076 2048 2568 6 33 59
360 2076 2048 2568 9 34 57
361 2076 2048 2568 7 32 58
362 2076 2048 2568 5 34 59
363 2076 2048 2568 6 31 58
364 2076 2048 2568 5 35 57
365 2076 2048 2568 6 35 59
366 2076 2048 2568 7 33 57
367 2076 2048 2568 6 34 58
368 2076 2048 2568 7 34 58
369 2076 2048 2568 7 33 56
370 2076 2048 2568 6 33 58
371 2076 2048 2568 6 34 56
372 2076 2048 2568 5 31 57
373 2076 2048 2568 7 35 57
374 2076 2048 2568 6 35 57
375 2076 2048 2568 8 35 57
376 2076 2048 2568 7 35 58
377 2076 2044 2568 6 33 59
378 2076 2048 2568 7 34 59
379 2076 2048 2568 7 32 60
380 2076 2048 2568 8 32 58
381 2076 2048 2568 6 35 60
382 2076 2048 2568 5 35 58
383 2076 2048 2568 6 33 57
384 2076 2048 2568 5 34 58
385 2076 2048 2568 6 35 58
386 2076 2048 2568 5 34 58
387 2076 2048 2568 7 33 58
388 2076 2048 2568 7 32 59
389 2076 2048 2568 7 36 60
390 2076 2048 2564 6 34 58
391 2076 2048 2568 7 32 58
392 2076 2048 2568 7 33 57
393 2076 2044 2564 6 34 58
394 2076 2048 2564 6 34 58
395 2076 2048 2564 8 33 58
396 2076 2048 2564 7 34 57
397 2076 2048 2564 6 34 57
398 2072 2048 2568 5 35 58
399 2072 2048 2568 7 35 58
400 2072 2048 2564 7 36 57
401 2072 2048 2568 7 34 58
402 2076 2048 2568 8 33 58
403 2076 2048 2568 7 34 56
404 2076 2048 2568 6 31 57
405 2076 2048 2568 7 33 57
406 2076 2048 2568 6 34 56
407 2076 2048 2568 7 33 58
408 2076 2048 2568 9 34 57
409 2076 2048 2568 8 34 59
410 2076 2048 2568 6 35 59
411 2076 2048 2568 8 33 58
412 2076 2048 2568 9 33 57
413 2076 2048 2568 6 34 58
414 2076 2048 2568 7 34 57
415 2076 2048 2568 6 34 58
416 2076 2048 2568 6 32 56
417 2076 2048 2568 6 33 58
418 2076 2048 2568 7 35 57
419 2076 2048 2564 6 35 58
420 2076 2048 2568 8 35 56
421 2076 2048 2568 6 33 58
422 2076 2048 2568 7 33 58
423 2076 2048 2568 6 36 58
424 2076 2048 2568 6 33 58
425 2076 2048 2568 6 34 58
426 2076 2048 2568 8 37 58
427 2076 2048 2568 8 36 58
428 2076 2048 2568 6 35 58
429 2076 2048 2568 7 33 58
430 2076 2048 2568 7 33 58
431 2076 2048 2568 8 35 56
432 2072 2048 2568 6 34 58
433 2072 2048 2568 7 32 57
434 2072 2048 2568 7 35 57
435 2072 2048 2568 8 34 57
436 2072 2048 2568 7 35 60
437 2076 2048 2568 6 33 58
438 2076 2048 2568 6 34 58
439 2076 2048 2568 7 33 59
440 2076 2048 2568 8 33 59
441 2076 2048 2568 6 34 58
442 2076 2048 2568 7 33 58
443 2076 2048 2568 7 33 58
444 2076 2048 2568 6 33 59
445 2076 2048 2568 4 32 58
446 2076 2048 2568 6 32 56
447 2076 2048 2568 6 36 59
448 2076 2048 2568 7 34 61
449 2076 2048 2568 6 33 57
450 2076 2048 2568 7 32 58
451 2076 2048 2568 6 34 58
452 2076 2048 2568 7 33 57
453 2076 2048 2568 7 33 57
454 2076 2048 2568 7 35 58
455 2076 2048 2568 6 32 58
456 2076 2048 2568 6 34 58
457 2076 2048 2568 7 34 58
458 2076 2048 2568 5 34 57
459 2076 2048 2568 6 36 57
460 2076 2048 2568 7 33 58
461 2076 2048 2572 7 34 58
462 2076 2048 2572 6 35 57
463 2076 2048 2568 6 34 57
464 2076 2048 2572 6 33 58
465 2076 2048 2568 6 35 57
466 2076 2044 2568 7 36 59
467 2076 2044 2568 6 35 58
468 2076 2044 2568 6 34 56
469 2076 2048 2568 7 34 56
470 2076 2048 2568 6 34 59
471 2076 2048 2568 5 34 56
472 2076 2048 2568 8 33 59
473 2076 2048 2568 7 35 59
474 2076 2048 2568 7 33 57
475 2076 2048 2568 8 34 58
476 2076 2048 2568 6 35 58
477 2076 2048 2568 5 32 59
478 2076 2048 2568 6 35 57
479 2076 2048 2568 7 34 56
480 2076 2048 2568 7 35 58
481 2076 2048 2568 5 35 56
482 2076 2048 2568 7 34 56
483 2076 2048 2568 5 34 57
484 2076 2048 2572 7 33 57
485 2072 2048 2572 7 35 56
486 2072 2048 2572 7 34 58
487 2076 2048 2572 7 33 58
488 2076 2048 2572 5 36 57
489 2076 2048 2572 8 34 58
490 2076 2048 2572 9 33 57
491 2076 2048 2572 8 33 57
492 2076 2048 2572 6 35 58
493 2076 2048 2572 7 35 58
494 2076 2048 2572 8 34 57
495 2076 2048 2572 8 34 57
496 2076 2048 2572 8 33 59
497 2076 2052 2572 6 34 57
498 2076 2048 2572 9 32 56
499 2076 2048 2572 7 34 57
500 2076 2048 2572 8 36 58
501 2076 2048 2568 6 35 57
502 2076 2048 2568 7 33 59
503 2072 2048 2568 7 34 57
504 2076 2048 2568 5 34 59
505 2076 2048 2568 7 34 58
506 2076 2048 2568 5 33 56
507 2076 2048 2568 4 34 56
508 2076 2048 2568 8 33 57
509 2076 2048 2568 5 35 56
510 2076 2048 2568 7 34 57
511 2076 2048 2568 6 36 58
512 2076 2048 2568 7 32 58
513 2076 2048 2568 4 33 58
514 2076 2048 2568 7 34 59
515 2076 2048 2568 7 35 57
516 2076 2048 2568 5 33 57
517 2076 2048 2568 5 32 58
518 2076 2048 2568 6 33 57
519 2076 2048 2568 6 37 57
520 2076 2048 2568 4 34 57
521 2076 2048 2568 5 32 58
522 2076 2048 2568 7 32 56
523 2076 2048 2568 7 31 59
524 2076 2048 2568 6 33 57
525 2076 2048 2568 5 32 56
526 2076 2048 2568 6 33 56
527 2076 2048 2568 8 33 58
528 2076 2048 2568 8 33 57
529 2076 2048 2568 6 35 57
530 2076 2048 2568 8 34 59
531 2076 2048 2568 8 34 57
532 2076 2048 2568 6 34 58
533 2076 2048 2568 4 35 58
534 2076 2048 2568 7 34 58
535 2076 2048 2568 7 35 57
536 2076 2048 2568 7 33 56
537 2076 2048 2568 8 37 56
538 2076 2048 2568 6 34 56
539 2076 2048 2568 7 34 58
540 2076 2048 2568 7 32 57
541 2076 2048 2568 7 35 57
542 2076 2048 2568 6 33 58
543 2076 2048 2568 7 34 56
544 2076 2048 2568 6 34 57
545 2072 2048 2568 7 33 58
546 2072 2048 2568 6 33 56
547 2072 2048 2568 8 34 58
548 2072 2048 2568 7 34 58
549 2076 2048 2568 6 33 56
550 2072 2048 2568 5 34 57
551 2072 2048 2568 7 34 56
552 2076 2048 2568 5 37 57
553 2076 2048 2568 9 36 57
554 2076 2048 2568 7 35 57
555 2076 2048 2568 7 34 57
556 2076 2044 2568 9 35 57
557 2076 2048 2568 6 35 58
558 2076 2048 2568 5 36 58
559 2076 2048 2568 6 35 57
560 2076 2048 2568 6 34 57
561 2076 2048 2568 6 35 57
562 2076 2048 2568 5 33 58
563 2076 2048 2568 8 34 58
564 2076 2048 2568 6 36 57
565 2076 2048 2568 6 35 59
566 2076 2048 2568 8 31 57
567 2076 2048 2568 7 34 57
568 2076 2048 2568 7 34 58
569 2076 2048 2568 5 36 58
570 2076 2048 2568 7 34 59
571 2076 2048 2568 6 34 58
572 2076 2048 2568 7 34 58
573 2076 2048 2568 6 35 58
574 2076 2044 2568 5 35 55
575 2076 2048 2568 7 35 58
576 2076 2044 2568 7 33 57
577 2076 2044 2568 6 35 55
578 2076 2044 2568 6 33 58
579 2076 2044 2568 8 36 57
580 2076 2048 2568 7 33 56
581 2076 2048 2568 8 32 59
582 2076 2048 2568 6 33 56
583 2076 2048 2568 6 35 58
584 2076 2048 2568 4 33 57
585 2076 2048 2568 6 32 59
586 2076 2048 2568 6 34 58
587 2076 2048 2568 9 33 58
588 2076 2048 2568 5 33 58
589 2072 2052 2568 7 36 58
590 2072 2052 2568 8 35 58
591 2072 2048 2568 6 31 57
592 2072 2048 2568 7 38 56
593 2072 2048 2568 7 36 57
594 2076 2048 2568 6 33 58
595 2076 2048 2568 7 33 56
596 2076 2048 2568 7 35 60
597 2076 2048 2568 5 33 58
598 2076 2048 2568 7 36 57
599 2076 2048 2568 7 34 59
600 2076 2048 2568 7 33 60
601 2076 2048 2568 4 34 59
602 2076 2048 2568 6 35 58
603 2072 2048 2568 5 35 57
604 2076 2048 2568 8 31 58
605 2076 2048 2568 6 35 57
606 2076 2048 2568 7 32 59
607 2076 2048 2568 7 34 59
608 2076 2048 2568 6 34 58
609 2076 2048 2568 5 33 58
610 2076 2048 2568 5 36 59
611 2076 2048 2568 5 34 59
612 2076 2048 2572 7 33 58
613 2076 2048 2572 6 34 57
614 2076 2048 2572 7 34 57
615 2076 2048 2568 7 32 58
616 2076 2048 2572 7 33 58
617 2076 2048 2572 6 33 56
618 2076 2048 2572 7 35 59
619 2076 2048 2572 6 35 58
620 2076 2048 2572 6 32 58
621 2076 2048 2572 8 34 60
622 2076 2048 2572 7 35 58
623 2076 2048 2572 7 36 57
624 2076 2048 2572 6 35 60
625 2076 2048 2572 6 33 59
626 2076 2048 2572 7 36 58
627 2076 2048 2572 8 34 58
628 2076 2048 2568 7 34 56
629 2076 2048 2568 6 30 57
630 2076 2048 2568 6 35 59
631 2076 2048 2568 6 31 57
632 2076 2048 2568 7 34 59
633 2076 2048 2568 7 32 58
634 2076 2048 2568 7 31 58
635 2076 2048 2572 6 34 58
636 2076 2048 2572 7 32 57
637 2076 2048 2572 8 34 59
638 2076 2048 2572 6 34 58
639 2076 2048 2572 8 33 58
640 2076 2048 2572 7 34 57
641 2076 2048 2572 7 35 57
642 2076 2048 2572 7 35 58
643 2076 2048 2568 6 36 59
644 2076 2048 2568 8 33 58
645 2076 2048 2568 7 33 57
646 2076 2048 2568 7 34 59
647 2076 2048 2568 6 33 60
648 2076 2048 2568 7 32 58
649 2076 2048 2568 7 33 57
650 2076 2048 2568 8 33 56
651 2076 2048 2568 5 33 58
652 2076 2048 2572 5 33 58
653 2076 2048 2572 8 34 56
654 2076 2048 2568 6 32 58
655 2076 2048 2568 7 35 57
656 2076 2048 2568 7 33 57
657 2076 2048 2568 8 35 58
658 2076 2048 2568 7 34 57
659 2076 2048 2568 6 32 57
660 2076 2048 2568 6 33 58
661 2076 2048 2568 5 34 59
662 2076 2048 2564 6 33 58
663 2076 2048 2568 6 34 58
664 2076 2048 2568 5 32 58
665 2076 2048 2568 7 35 57
666 2076 2048 2568 6 35 58
667 2076 2048 2568 5 33 59
668 2076 2048 2568 4 33 56
669 2076 2048 2568 6 34 56
670 2076 2048 2568 7 35 58
671 2076 2048 2572 8 35 57
672 2076 2048 2568 7 33 58
673 2076 2048 2568 7 34 57
674 2076 2048 2568 8 33 56
675 2076 2048 2568 7 36 57
676 2076 2048 2568 5 33 59
677 2072 2048 2568 5 34 59
678 2072 2048 2568 7 34 56
679 2072 2048 2568 7 34 57
680 2072 2048 2568 8 33 59
681 2072 2048 2568 6 33 58
682 2072 2048 2568 6 33 57
683 2072 2048 2568 7 34 56
684 2072 2048 2568 7 34 58
685 2072 2048 2568 5 32 59
686 2076 2048 2568 6 34 58
687 2072 2048 2568 6 34 60
688 2076 2048 2568 5 33 58
689 2072 2048 2568 6 36 57
690 2072 2048 2568 7 34 58
691 2072 2048 2568 6 33 57
692 2072 2048 2568 7 35 58
693 2072 2048 2568 5 37 56
694 2072 2048 2568 8 36 59
695 2072 2048 2568 7 35 55
696 2072 2048 2568 6 34 57
697 2072 2048 2568 6 30 56
698 2072 2048 2568 5 34 59
699 2072 2048 2568 8 34 57
700 2072 2048 2568 5 35 57
701 2076 2048 2568 5 33 57
702 2076 2048 2568 8 31 58
703 2076 2048 2568 6 33 58
704 2076 2048 2568 6 34 58
705 2076 2048 2568 8 34 58
706 2076 2048 2568 6 32 57
707 2076 2048 2568 7 35 56
708 2076 2048 2568 8 36 58
709 2076 2048 2568 8 34 58
710 2076 2048 2568 6 33 57
711 2076 2048 2568 8 33 58
712 2076 2048 2568 7 34 58
713 2076 2048 2568 5 35 59
714 2076 2048 2568 7 34 57
715 2076 2048 2568 5 34 59
716 2076 2048 2568 5 33 58
717 2076 2048 2572 5 32 58
718 2076 2048 2572 5 34 58
719 2076 2048 2572 6 34 58
720 2076 2048 2568 6 33 58
721 2076 2048 2568 6 34 61
722 2076 2048 2568 6 33 59
723 2076 2044 2568 9 36 57
724 2076 2044 2568 8 32 58
725 2076 2044 2568 7 35 57
726 2076 2048 2568 8 33 57
727 2076 2048 2568 6 34 59
728 2076 2048 2568 6 34 59
729 2076 2048 2568 5 35 56
730 2076 2048 2572 6 34 56
731 2076 2048 2572 7 34 58
732 2076 2048 2572 6 33 57
733 2076 2048 2568 6 32 56
734 2076 2048 2568 8 34 58
735 2076 2048 2568 6 32 57
736 2076 2048 2568 7 35 58
737 2076 2048 2568 6 32 57
738 2076 2048 2568 7 33 59
739 2076 2048 2568 7 33 60
740 2076 2048 2568 7 33 58
741 2076 2048 2568 7 34 58
742 2076 2048 2568 6 34 58
743 2076 2048 2568 6 34 58
744 2076 2048 2568 6 34 57
745 2072 2048 2568 6 35 57
746 2072 2048 2568 7 34 58
747 2072 2048 2568 7 34 58
748 2072 2048 2568 6 35 58
749 2072 2048 2568 4 33 58
750 2072 2048 2568 7 33 58
751 2076 2048 2568 7 34 60
752 2076 2048 2568 7 36 58
753 2076 2048 2568 6 34 58
754 2076 2048 2568 6 36 58
755 2076 2048 2564 7 36 58
756 2076 2048 2564 5 36 56
757 2076 2048 2564 9 34 56
758 2076 2048 2564 8 35 57
759 2076 2048 2564 7 34 57
760 2076 2048 2568 5 34 58
761 2076 2048 2568 5 34 58
762 2076 2048 2568 7 35 56
763 2080 2044 2568 8 34 58
764 2080 2044 2568 7 33 58
765 2080 2044 2568 7 33 58
766 2080 2048 2568 7 35 58
767 2080 2048 2568 4 35 58
768 2080 2048 2568 5 35 57
769 2076 2048 2568 6 33 58
770 2076 2048 2568 7 33 58
771 2076 2048 2568 8 34 57
772 2076 2048 2568 7 34 59
773 2076 2048 2568 7 35 57
774 2076 2048 2572 8 35 59
775 2076 2048 2568 9 34 58
776 2076 2048 2568 4 33 58
777 2076 2048 2572 5 35 57
778 2076 2048 2568 6 35 59
779 2076 2048 2572 6 33 58
780 2076 2048 2572 7 34 57
781 2076 2048 2572 9 33 58
782 2076 2048 2572 7 35 57
783 2076 2048 2572 7 34 57
784 2076 2048 2572 6 35 58
785 2076 2048 2572 7 34 58
786 2076 2048 2572 6 35 58
787 2076 2048 2572 7 33 57
788 2076 2048 2572 6 32 58
789 2076 2048 2568 6 33 58
790 2076 2048 2568 5 34 57
791 2076 2048 2568 5 34 57
792 2076 2048 2568 4 35 59
793 2076 2048 2568 6 33 58
794 2076 2048 2568 7 36 56
795 2076 2048 2568 8 33 59
796 2076 2048 2568 6 33 57
797 2076 2048 2568 7 33 58
798 2076 2048 2568 6 33 58
799 2076 2048 2568 7 32 58
800 2076 2048 2568 5 33 58
801 2076 2048 2568 7 34 57
802 2076 2048 2568 6 33 59
803 2076 2048 2568 6 34 58
804 2076 2044 2568 5 34 59
805 2076 2044 2564 7 34 58
806 2076 2048 2564 6 34 57
807 2076 2048 2564 8 33 57
808 2076 2048 2564 8 35 55
809 2076 2044 2568 6 33 57
810 2076 2044 2568 6 36 58
811 2076 2044 2568 7 34 59
812 2076 2048 2564 7 36 58
813 2076 2048 2568 4 34 57
814 2076 2048 2568 7 35 58
815 2076 2048 2568 7 35 57
816 2076 2048 2568 6 33 58
817 2076 2048 2564 6 33 57
818 2076 2048 2564 6 32 58
819 2076 2048 2568 7 34 57
820 2076 2048 2568 6 36 58
821 2076 2048 2568 6 34 56
822 2076 2048 2568 8 34 58
823 2072 2048 2568 6 33 58
824 2076 2048 2568 7 35 57
825 2076 2048 2568 6 34 57
826 2076 2048 2568 7 34 58
827 2076 2048 2568 8 36 57
828 2076 2048 2568 8 34 58
829 2076 2048 2568 6 34 56
830 2076 2048 2568 5 34 58
831 2076 2048 2568 7 34 59
832 2076 2048 2568 6 33 58
833 2076 2048 2568 6 34 58
834 2076 2048 2568 7 35 58
835 2076 2048 2568 6 33 58
836 2076 2048 2568 5 32 57
837 2076 2048 2568 6 35 57
838 2076 2048 2568 6 34 57
839 2076 2048 2568 8 34 59
840 2076 2048 2568 6 35 57
841 2076 2048 2568 6 34 55
842 2076 2048 2568 8 34 59
843 2076 2048 2568 6 35 58
844 2076 2048 2568 7 36 59
845 2076 2048 2568 6 36 59
846 2072 2048 2568 7 33 58
847 2072 2048 2568 8 34 57
848 2072 2048 2568 6 34 57
849 2076 2048 2568 5 35 58
850 2076 2048 2568 6 36 56
851 2076 2048 2568 7 34 56
852 2076 2048 2568 6 33 57
853 2072 2048 2568 5 33 57
854 2072 2048 2568 7 33 60
855 2076 2048 2568 6 34 58
856 2076 2052 2568 7 34 57
857 2072 2052 2568 5 32 57
858 2072 2052 2568 4 35 55
859 2072 2052 2568 6 33 57
860 2072 2052 2568 7 31 56
861 2072 2052 2568 6 34 58
862 2072 2052 2568 6 33 58
863 2076 2048 2568 6 33 58
864 2076 2048 2568 6 35 57
865 2076 2048 2568 6 33 57
866 2076 2048 2568 6 36 57
867 2076 2044 2568 7 34 58
868 2076 2044 2568 6 36 59
869 2076 2048 2568 7 34 58
870 2072 2048 2568 7 34 58
871 2076 2048 2568 6 34 58
872 2076 2048 2568 5 36 59
873 2072 2048 2568 7 33 58
874 2072 2048 2568 6 33 57
875 2072 2048 2568 7 34 57
876 2072 2048 2568 5 31 59
877 2076 2048 2568 5 32 58
878 2076 2048 2568 7 36 57
879 2076 2048 2568 7 34 58
880 2076 2048 2568 6 34 57
881 2072 2048 2568 6 35 56
882 2076 2048 2568 8 35 56
883 2076 2048 2568 7 35 59
884 2076 2048 2568 8 33 59
885 2076 2048 2568 7 35 57
886 2076 2048 2568 7 34 56
887 2076 2048 2568 9 35 57
888 2076 2048 2572 7 33 57
889 2076 2048 2572 5 34 58
890 2076 2048 2572 5 33 60
891 2076 2048 2572 7 35 57
892 2076 2048 2572 5 33 57
893 2076 2048 2572 6 32 58
894 2076 2048 2572 6 32 58
895 2076 2048 2572 7 33 56
896 2076 2048 2572 6 34 58
897 2076 2048 2572 7 34 58
898 2076 2048 2568 7 33 57
899 2076 2048 2568 5 34 58
900 2076 2048 2568 4 35 58
901 2076 2048 2568 8 33 57
902 2076 2048 2568 7 34 58
903 2076 2048 2568 4 34 58
904 2076 2048 2568 8 36 57
905 2076 2048 2568 8 35 58
906 2076 2048 2568 6 33 58
907 2072 2052 2568 7 35 58
908 2072 2052 2568 6 34 57
909 2076 2048 2568 6 32 58
910 2076 2052 2568 7 35 58
911 2076 2052 2568 6 34 60
912 2076 2048 2568 7 35 58
913 2076 2048 2568 7 33 59
914 2076 2048 2568 7 35 56
915 2076 2048 2568 7 34 56
916 2076 2048 2568 7 35 57
917 2076 2048 2568 6 32 58
918 2076 2048 2568 6 34 57
919 2076 2048 2568 6 33 58
920 2076 2048 2568 5 34 58
921 2076 2048 2568 6 34 55
922 2076 2048 2572 6 36 56
923 2076 2048 2572 5 35 58
924 2076 2048 2572 7 33 57
925 2076 2048 2572 7 33 58
926 2076 2048 2572 6 34 57
927 2076 2048 2568 6 34 57
928 2076 2048 2568 6 32 56
929 2076 2048 2568 7 33 57
930 2076 2048 2568 8 34 58
931 2076 2048 2564 7 35 58
932 2076 2048 2568 7 33 57
933 2076 2048 2568 5 33 58
934 2076 2048 2568 6 34 57
935 2076 2048 2568 7 34 60
936 2076 2048 2568 8 34 58
937 2076 2048 2568 7 33 59
938 2076 2048 2568 8 34 57
939 2076 2048 2568 6 33 57
940 2076 2048 2568 6 35 57
941 2076 2048 2568 5 33 58
942 2076 2048 2568 6 34 58
943 2076 2048 2568 7 34 58
944 2076 2048 2568 6 35 58
945 2076 2048 2568 5 34 58
946 2076 2048 2568 6 35 57
947 2076 2048 2568 6 34 57
948 2076 2048 2572 8 33 58
949 2076 2048 2568 5 34 57
950 2076 2048 2568 8 32 57
951 2076 2048 2568 8 36 58
952 2076 2048 2568 9 34 58
953 2076 2044 2568 7 34 58
954 2076 2044 2568 7 35 58
955 2076 2044 2568 5 33 58
956 2076 2044 2568 7 35 57
957 2076 2048 2568 6 33 58
958 2076 2048 2568 6 33 58
959 2076 2048 2568 7 34 60
960 2076 2048 2568 6 33 57
961 2076 2048 2568 8 36 59
962 2076 2048 2568 7 35 57
963 2076 2048 2568 8 33 56
964 2076 2048 2568 6 34 58
965 2076 2048 2572 6 35 57
966 2076 2044 2568 8 35 58
967 2076 2048 2572 7 32 57
968 2076 2044 2572 8 35 57
969 2076 2048 2572 7 35 56
970 2076 2048 2572 6 34 59
971 2076 2048 2572 7 33 58
972 2076 2048 2572 6 33 57
973 2076 2048 2572 5 33 58
974 2076 2048 2572 7 35 59
975 2076 2048 2572 5 33 56
976 2076 2048 2568 7 33 58
977 2076 2048 2568 7 34 58
978 2076 2048 2568 9 35 59
979 2076 2048 2568 5 36 58
980 2076 2048 2568 6 34 56
981 2072 2048 2568 8 34 58
982 2072 2048 2568 6 34 58
983 2072 2048 2568 6 34 59
984 2072 2048 2568 7 33 57
985 2072 2048 2568 6 34 58
986 2072 2048 2568 6 33 56
987 2072 2048 2568 6 35 59
988 2072 2048 2568 6 34 57
989 2072 2048 2568 7 34 57
990 2076 2048 2568 7 36 58
991 2072 2048 2568 4 33 58
992 2072 2048 2568 5 33 58
993 2076 2048 2568 6 34 58
994 2076 2048 2568 6 34 57
995 2076 2048 2568 6 34 56
996 2076 2048 2568 6 33 57
997 2076 2048 2568 6 36 58
998 2076 2048 2568 8 33 57
999 2076 2048 2568 6 34 58
1000 2076 2048 2568 6 33 59
1001 2076 2048 2568 5 31 57
1002 2076 2048 2568 7 35 59
1003 2076 2048 2568 7 35 59
1004 2076 2048 2568 8 34 58
1005 2076 2048 2568 8 35 58
1006 2072 2048 2568 8 34 58
1007 2072 2048 2568 8 34 59
1008 2072 2048 2568 6 33 57
1009 2072 2048 2568 7 33 58
1010 2072 2048 2568 7 35 57
1011 2076 2048 2568 7 33 58
1012 2076 2048 2564 5 33 58
1013 2076 2048 2568 6 32 57
1014 2076 2048 2568 7 35 57
1015 2076 2048 2568 7 31 58
1016 2076 2048 2568 5 34 59
1017 2076 2048 2564 6 34 59
1018 2076 2048 2568 7 32 58
1019 2076 2048 2568 5 31 58
1020 2076 2048 2568 5 33 58
1021 2076 2048 2568 8 34 57
1022 2072 2044 2568 7 36 59
1023 2072 2048 2568 8 36 58
1024 2072 2048 2568 5 33 59
1025 2076 2044 2568 6 33 59
1026 2076 2044 2568 6 35 58
1027 2076 2044 2568 6 34 57
1028 2076 2044 2568 4 31 57
1029 2076 2048 2568 7 33 57
1030 2076 2048 2568 4 34 58
1031 2076 2048 2568 6 32 58
1032 2076 2048 2568 7 34 57
1033 2076 2048 2568 6 35 57
1034 2076 2048 2568 6 34 57
1035 2076 2048 2568 7 34 58
1036 2076 2048 2568 6 35 57
1037 2076 2048 2568 9 33 57
1038 2076 2048 2568 6 35 57
1039 2076 2048 2568 6 33 58
1040 2076 2048 2568 7 34 58
1041 2076 2048 2568 6 33 57
1042 2076 2048 2568 6 35 58
1043 2076 2048 2568 7 33 56
1044 2076 2048 2568 6 35 58
1045 2076 2048 2568 6 33 57
1046 2076 2044 2568 6 35 57
1047 2076 2044 2568 6 35 57
1048 2076 2044 2568 5 35 57
1049 2076 2044 2568 4 34 58
1050 2076 2044 2568 8 35 58
1051 2076 2044 2572 7 35 57
1052 2072 2044 2572 8 32 58
1053 2072 2044 2568 4 34 57
1054 2072 2048 2568 6 34 57
1055 2072 2048 2568 6 35 57
1056 2072 2048 2568 7 31 59
1057 2072 2048 2568 5 34 58
1058 2072 2048 2568 7 35 58
1059 2072 2048 2568 6 34 58
1060 2072 2048 2568 7 34 58
1061 2072 2048 2564 8 34 57
1062 2072 2048 2568 6 35 58
1063 2076 2048 2568 6 34 56
1064 2076 2048 2568 5 34 59
1065 2076 2048 2568 6 35 58
1066 2072 2048 2568 6 34 56
1067 2076 2048 2568 5 35 58
1068 2076 2048 2568 6 33 58
1069 2072 2048 2568 7 32 58
1070 2072 2048 2568 6 32 58
1071 2072 2048 2568 5 35 57
1072 2072 2048 2568 6 36 58
1073 2072 2048 2568 6 33 59
1074 2072 2048 2568 6 34 59
1075 2072 2048 2568 6 34 58
1076 2072 2048 2568 4 32 58
1077 2072 2048 2568 7 35 57
1078 2072 2048 2568 7 34 57
1079 2072 2048 2568 6 34 57
1080 2072 2048 2568 5 35 59
1081 2072 2048 2568 6 34 57
1082 2072 2048 2568 7 34 57
1083 2072 2048 2568 7 35 58
1084 2072 2048 2568 8 35 56
1085 2072 2048 2568 8 36 58
1086 2072 2048 2568 4 34 57
1087 2072 2048 2568 7 35 58
1088 2072 2048 2568 7 35 58
1089 2076 2048 2568 6 34 55
1090 2076 2048 2568 7 33 57
1091 2076 2048 2568 5 33 59
1092 2076 2048 2568 4 34 57
1093 2076 2048 2568 5 34 59
1094 2076 2048 2568 6 35 59
1095 2076 2048 2568 5 34 59
1096 2076 2048 2568 5 34 57
1097 2076 2048 2568 5 34 58
1098 2076 2048 2568 6 36 60
1099 2076 2048 2568 7 34 59
1100 2076 2048 2568 5 35 57
1101 2076 2048 2568 6 34 58
1102 2076 2048 2568 6 33 59
1103 2076 2048 2568 5 33 57
1104 2076 2048 2568 6 34 56
1105 2076 2048 2568 6 33 57
1106 2076 2048 2568 5 34 58
1107 2076 2048 2568 6 36 60
1108 2076 2048 2568 7 34 56
1109 2076 2048 2568 6 34 57
1110 2076 2048 2564 8 33 56
1111 2076 2048 2568 6 32 56
1112 2072 2048 2568 5 33 57
1113 2072 2048 2568 7 33 57
1114 2072 2048 2568 9 33 57
1115 2076 2048 2568 7 35 57
1116 2076 2048 2568 5 34 58
1117 2076 2048 2568 6 34 58
1118 2076 2048 2568 6 34 58
1119 2076 2048 2568 8 33 59
1120 2076 2048 2568 4 32 56
1121 2076 2048 2568 5 33 56
1122 2076 2048 2572 6 33 56
1123 2076 2048 2572 7 36 57
1124 2076 2048 2572 5 34 58
1125 2076 2048 2572 6 33 58
1126 2076 2048 2572 7 33 56
1127 2076 2048 2572 6 33 58
1128 2076 2048 2568 7 33 58
1129 2076 2048 2568 6 33 58
1130 2076 2048 2568 5 32 58
1131 2076 2048 2568 4 34 57
1132 2076 2048 2568 8 34 58
1133 2076 2048 2568 8 32 59
1134 2072 2048 2568 5 33 59
1135 2072 2048 2568 6 34 58
1136 2072 2048 2568 7 33 58
1137 2072 2048 2568 6 36 58
1138 2072 2048 2568 7 34 57
1139 2072 2048 2568 6 35 56
1140 2072 2048 2568 5 32 57
1141 2076 2048 2568 5 33 56
1142 2076 2048 2568 4 32 57
1143 2076 2048 2568 9 34 58
1144 2076 2048 2568 5 35 57
1145 2076 2048 2568 8 34 58
1146 2076 2048 2568 6 33 57
1147 2076 2048 2568 6 35 58
1148 2076 2048 2568 7 35 57
1149 2076 2048 2568 7 33 58
1150 2076 2048 2568 7 33 57
1151 2072 2048 2568 7 32 57
1152 2072 2048 2568 7 32 57
1153 2072 2048 2568 4 33 56
1154 2072 2048 2568 4 32 57
1155 2072 2048 2568 7 34 57
1156 2072 2048 2568 5 34 57
1157 2072 2048 2568 3 34 56
1158 2076 2048 2568 9 33 57
1159 2076 2048 2568 7 32 58
1160 2076 2048 2568 7 36 57
1161 2076 2048 2568 5 36 60
1162 2076 2048 2568 5 33 57
1163 2076 2048 2568 7 34 57
1164 2076 2048 2568 8 34 57
1165 2076 2048 2568 7 34 59
1166 2076 2052 2568 7 32 59
1167 2072 2052 2568 7 31 59
1168 2076 2048 2568 6 35 59
1169 2076 2048 2568 6 35 58
1170 2072 2052 2568 6 35 58
1171 2072 2048 2568 6 34 58
1172 2072 2048 2568 6 34 59
1173 2072 2048 2564 7 31 59
1174 2072 2048 2568 6 33 57
1175 2072 2048 2568 8 36 58
1176 2072 2048 2568 6 32 58
1177 2072 2048 2568 6 36 57
1178 2076 2048 2568 7 34 57
1179 2076 2048 2568 6 30 59
1180 2072 2048 2568 6 34 57
1181 2072 2048 2568 5 34 56
1182 2072 2048 2568 7 34 56
1183 2076 2048 2568 5 33 57
1184 2076 2048 2568 6 35 56
1185 2076 2048 2568 6 34 58
1186 2076 2048 2568 7 32 58
1187 2076 2048 2564 7 34 57
1188 2076 2048 2564 6 35 58
1189 2076 2048 2564 6 34 58
1190 2076 2048 2564 7 33 59
1191 2076 2048 2564 9 34 58
1192 2076 2048 2564 6 34 57
1193 2076 2048 2564 6 33 57
1194 2076 2048 2568 7 34 58
1195 2076 2048 2568 5 36 58
1196 2076 2048 2568 5 35 59
1197 2076 2048 2568 6 36 58
1198 2076 2048 2568 7 34 58
1199 2076 2048 2568 6 33 56
1200 2072 2048 2564 6 33 58
1201 2072 2048 2568 9 33 59
1202 2072 2048 2568 6 34 57
1203 2072 2048 2568 7 34 57
1204 2072 2048 2568 6 32 57
1205 2072 2048 2568 7 34 56
1206 2072 2048 2568 5 33 59
1207 2072 2048 2568 6 34 58
1208 2072 2048 2568 6 35 56
1209 2072 2048 2568 5 33 59
1210 2076 2048 2568 6 36 58
1211 2076 2048 2568 8 35 58
1212 2076 2048 2568 8 34 57
1213 2076 2048 2568 4 34 58
1214 2076 2048 2568 7 35 57
1215 2076 2048 2568 6 34 59
1216 2076 2048 2568 5 34 57
1217 2076 2048 2568 6 34 57
1218 2076 2052 2568 6 35 58
1219 2076 2052 2568 6 34 58
1220 2076 2052 2568 6 34 58
1221 2076 2048 2568 5 36 58
1222 2076 2048 2568 7 34 58
1223 2076 2048 2568 6 36 57
1224 2076 2048 2568 7 32 57
1225 2076 2048 2568 7 33 58
1226 2076 2048 2568 8 34 59
1227 2076 2048 2568 7 33 59
1228 2076 2048 2568 7 33 59
1229 2076 2048 2568 8 36 59
1230 2076 2048 2572 7 34 58
1231 2076 2048 2572 7 34 58
1232 2076 2048 2572 8 32 58
1233 2076 2044 2568 7 33 57
1234 2076 2044 2568 7 33 58
1235 2076 2044 2568 7 35 57
1236 2076 2044 2568 6 35 57
1237 2076 2048 2568 5 33 58
1238 2076 2048 2568 6 34 59
1239 2076 2048 2568 6 34 59
1240 2076 2048 2568 6 35 57
1241 2076 2048 2568 6 33 58
1242 2076 2048 2568 6 37 59
1243 2076 2044 2568 4 37 56
1244 2076 2044 2568 5 34 56
1245 2076 2048 2568 6 34 57
1246 2076 2048 2568 8 35 58
1247 2076 2044 2568 7 36 56
1248 2076 2044 2568 6 33 59
1249 2076 2044 2568 6 34 58
1250 2076 2044 2568 6 33 59
1251 2076 2044 2568 6 34 59
1252 2076 2044 2568 5 32 57
1253 2076 2044 2568 5 34 59
1254 2076 2044 2568 6 35 58
1255 2076 2044 2568 6 35 58
1256 2076 2048 2568 7 34 59
1257 2076 2048 2568 6 33 56
1258 2076 2048 2568 4 33 58
1259 2076 2048 2568 6 34 58
1260 2076 2048 2568 5 35 58
1261 2076 2048 2568 7 34 58
1262 2076 2048 2568 7 32 58
1263 2072 2048 2568 7 32 58
1264 2076 2048 2568 8 34 58
1265 2076 2048 2568 7 35 60
1266 2076 2048 2568 7 35 59
1267 2076 2048 2568 6 33 56
1268 2076 2048 2568 4 33 58
1269 2076 2048 2572 7 35 56
1270 2076 2048 2572 7 33 58
1271 2076 2048 2572 5 33 58
1272 2076 2048 2572 7 34 58
1273 2076 2048 2572 7 33 59
1274 2076 2048 2572 6 34 56
1275 2076 2048 2572 6 33 58
1276 2076 2048 2572 4 33 57
1277 2076 2048 2568 7 34 60
1278 2076 2048 2568 7 34 57
1279 2076 2048 2568 7 35 58
1280 2076 2048 2568 5 35 59
1281 2076 2048 2568 8 34 58
1282 2076 2048 2568 5 34 58
1283 2076 2048 2568 7 36 57
1284 2076 2048 2568 7 33 59
1285 2076 2048 2568 5 34 58
1286 2076 2048 2568 6 36 59
1287 2076 2048 2568 8 37 59
1288 2076 2048 2564 5 35 59
1289 2076 2048 2568 7 34 58
1290 2076 2048 2568 5 34 57
1291 2076 2048 2564 4 35 58
1292 2076 2048 2568 5 34 58
1293 2076 2048 2568 7 33 58
1294 2076 2044 2568 7 36 58
1295 2076 2048 2568 6 34 56
1296 2076 2044 2564 5 33 56
1297 2076 2044 2564 6 34 57
1298 2076 2044 2568 7 35 59
1299 2076 2044 2568 5 34 57
1300 2076 2044 2568 5 35 58
1301 2076 2044 2568 7 35 59
1302 2076 2044 2568 7 33 57
1303 2076 2044 2568 6 33 57
1304 2076 2044 2568 8 35 57
1305 2076 2044 2568 6 34 58
1306 2072 2044 2568 6 33 58
1307 2072 2048 2568 7 36 56
1308 2072 2048 2568 8 33 59
1309 2072 2048 2568 4 33 57
1310 2072 2048 2568 7 33 57
1311 2072 2048 2568 7 34 57
1312 2072 2048 2568 6 34 58
1313 2072 2048 2568 6 33 59
1314 2076 2048 2568 8 33 58
1315 2076 2044 2572 6 34 58
1316 2076 2044 2572 6 33 59
1317 2076 2044 2568 5 34 57
1318 2076 2044 2568 8 32 57
1319 2076 2044 2568 8 35 58
1320 2072 2044 2568 5 36 57
1321 2076 2048 2568 7 31 58
1322 2076 2048 2568 8 33 58
1323 2076 2048 2568 6 35 57
1324 2076 2048 2568 6 34 58
1325 2076 2048 2568 7 33 59
1326 2076 2048 2568 7 33 59
1327 2076 2048 2568 5 33 58
1328 2076 2048 2568 5 33 57
1329 2076 2048 2572 7 35 58
1330 2076 2048 2572 7 34 57
1331 2076 2048 2572 6 34 57
1332 2076 2048 2572 4 34 56
1333 2076 2048 2568 7 34 57
1334 2076 2048 2572 6 34 58
1335 2076 2048 2572 7 33 58
1336 2076 2048 2572 5 34 60
1337 2076 2048 2572 7 34 59
1338 2076 2048 2572 8 35 59
1339 2076 2048 2568 7 34 57
1340 2076 2048 2568 4 32 57
1341 2076 2048 2568 4 33 57
1342 2076 2048 2568 4 32 57
1343 2076 2048 2568 7 35 57
1344 2076 2048 2568 6 35 57
1345 2076 2048 2568 7 35 58
1346 2076 2048 2568 5 34 57
1347 2076 2048 2568 7 33 58
1348 2076 2048 2568 5 33 57
1349 2076 2048 2568 5 33 59
1350 2076 2048 2568 7 33 58
1351 2076 2048 2568 7 36 57
1352 2076 2048 2568 6 35 57
1353 2076 2048 2568 7 34 57
1354 2076 2048 2568 6 34 57
1355 2076 2048 2568 6 35 57
1356 2076 2048 2568 6 37 59
1357 2076 2048 2564 5 33 58
1358 2076 2048 2564 6 34 58
1359 2076 2048 2564 5 32 56
1360 2076 2048 2564 7 35 59
1361 2076 2048 2564 5 34 57
1362 2076 2048 2564 6 34 57
1363 2076 2044 2568 6 35 58
1364 2076 2044 2564 6 34 58
1365 2076 2048 2568 5 33 58
1366 2076 2048 2568 6 34 57
1367 2076 2048 2568 5 33 57
1368 2076 2048 2568 6 32 57
1369 2076 2048 2568 6 30 56
1370 2076 2048 2568 7 32 57
1371 2076 2048 2568 7 31 58
1372 2076 2048 2568 7 34 56
1373 2076 2048 2568 6 34 58
1374 2076 2048 2568 7 36 58
1375 2076 2048 2568 7 35 59
1376 2076 2048 2568 8 33 58
1377 2076 2048 2568 6 34 57
1378 2076 2048 2568 6 33 59
1379 2076 2048 2568 5 33 58
1380 2076 2048 2568 6 33 60
1381 2076 2048 2568 6 33 58
1382 2076 2048 2568 8 33 59
1383 2076 2048 2568 6 34 58
1384 2076 2048 2568 6 35 56
1385 2076 2048 2568 7 33 57
1386 2076 2048 2568 6 36 58
1387 2076 2048 2568 9 33 59
1388 2076 2048 2568 5 34 57
1389 2076 2048 2568 6 34 57
1390 2076 2048 2568 5 34 57
1391 2076 2048 2568 6 34 58
1392 2076 2048 2568 6 33 56
1393 2076 2048 2568 8 33 57
1394 2076 2048 2568 8 35 58
1395 2076 2048 2568 5 36 59
1396 2076 2048 2568 7 33 58
1397 2076 2048 2568 5 33 57
1398 2076 2048 2568 6 33 59
1399 2076 2048 2568 8 35 59
1400 2076 2048 2568 6 32 57
1401 2076 2048 2568 8 33 58
1402 2076 2048 2568 5 33 57
1403 2076 2048 2568 6 34 58
1404 2076 2048 2568 7 34 58
1405 2076 2048 2572 5 33 57
1406 2076 2048 2572 5 35 58
1407 2076 2048 2572 7 35 58
1408 2076 2048 2572 5 36 57
1409 2076 2048 2572 7 32 57
1410 2076 2048 2572 7 36 57
1411 2076 2048 2572 6 33 58
1412 2076 2048 2572 6 34 58
1413 2076 2048 2572 6 36 57
1414 2076 2048 2572 8 36 57
1415 2076 2048 2572 7 36 57
1416 2072 2048 2572 6 32 57
1417 2076 2048 2572 5 34 58
1418 2076 2048 2572 5 35 58
1419 2076 2044 2572 6 35 58
1420 2076 2048 2568 5 33 59
1421 2076 2044 2568 8 34 57
1422 2076 2044 2568 5 32 58
1423 2076 2044 2568 6 34 58
1424 2076 2044 2568 4 33 58
1425 2076 2044 2568 5 34 59
1426 2076 2044 2568 7 34 57
1427 2076 2048 2568 6 34 58
1428 2076 2048 2568 7 36 57
1429 2076 2048 2568 6 33 57
1430 2076 2048 2568 6 34 58
1431 2076 2048 2568 6 35 57
1432 2076 2048 2568 6 34 57
1433 2076 2048 2568 7 34 57
1434 2076 2048 2568 7 36 56
1435 2076 2044 2568 8 36 57
1436 2076 2044 2568 5 34 58
1437 2076 2044 2568 6 33 58
1438 2076 2048 2568 5 33 57
1439 2076 2048 2568 6 35 59
1440 2076 2048 2568 5 35 57
1441 2076 2048 2572 8 35 57
1442 2076 2048 2572 6 34 58
1443 2076 2048 2572 8 33 58
1444 2076 2048 2572 6 36 58
1445 2076 2048 2572 6 34 60
1446 2076 2048 2572 5 34 58
1447 2076 2048 2572 7 33 57
1448 2076 2044 2572 7 33 57
1449 2076 2048 2572 6 33 58
1450 2076 2048 2572 8 32 59
1451 2076 2048 2572 7 34 56
1452 2076 2048 2572 6 33 59
1453 2076 2048 2572 6 33 56
1454 2076 2048 2572 4 34 58
1455 2076 2048 2572 5 35 55
1456 2076 2048 2572 5 34 57
1457 2076 2048 2572 8 32 57
1458 2076 2048 2568 7 35 56
1459 2076 2048 2568 7 34 57
1460 2076 2048 2568 6 34 58
1461 2076 2048 2568 6 33 58
1462 2076 2048 2568 6 32 57
1463 2076 2044 2568 6 35 58
1464 2076 2044 2568 6 33 57
1465 2076 2044 2568 4 34 57
1466 2076 2048 2568 4 33 58
1467 2076 2048 2568 7 34 58
1468 2076 2048 2568 8 34 58
1469 2076 2048 2568 6 34 59
1470 2076 2048 2568 8 35 59
1471 2076 2048 2568 6 33 58
1472 2076 2048 2568 5 35 57
1473 2076 2048 2568 6 34 58
1474 2076 2048 2568 6 35 56
1475 2076 2048 2568 7 33 56
1476 2076 2048 2568 8 33 56
1477 2076 2048 2568 5 34 57
1478 2076 2048 2568 7 34 56
1479 2076 2048 2568 8 36 57
1480 2076 2048 2568 9 34 58
1481 2076 2048 2568 6 34 58
1482 2076 2048 2568 6 34 57
1483 2076 2048 2568 5 33 57
1484 2076 2044 2568 7 36 58
1485 2076 2048 2568 6 34 60
1486 2080 2048 2568 6 35 57
1487 2080 2048 2568 5 33 56
1488 2080 2044 2568 6 33 57
1489 2080 2044 2568 7 32 58
1490 2076 2044 2568 6 32 59
1491 2076 2044 2568 8 35 59
1492 2076 2048 2568 7 33 59
1493 2076 2048 2568 7 33 58
1494 2076 2048 2568 6 35 57
1495 2076 2048 2568 6 33 57
1496 2076 2048 2568 6 33 56
1497 2072 2048 2568 6 33 58
1498 2072 2048 2568 8 35 55
1499 2072 2048 2568 6 33 58
1500 2072 2048 2568 6 34 57
1501 2072 2048 2568 7 33 55
1502 2072 2048 2568 5 36 59
1503 2076 2048 2568 6 36 58
1504 2076 2048 2568 6 32 58
1505 2076 2048 2568 7 31 58
1506 2076 2048 2568 8 34 57
1507 2076 2048 2568 8 35 59
1508 2076 2048 2568 6 33 56
1509 2076 2048 2568 7 34 57
1510 2076 2048 2568 9 34 59
1511 2076 2048 2568 6 35 58
1512 2076 2048 2568 5 32 57
1513 2076 2048 2568 7 33 58
1514 2076 2048 2568 6 33 58
1515 2076 2044 2568 7 34 58
1516 2076 2048 2568 7 32 57
1517 2076 2048 2568 7 33 57
1518 2076 2048 2568 6 35 58
1519 2076 2048 2572 6 32 60
1520 2076 2048 2568 6 33 58
1521 2076 2048 2572 6 33 55
1522 2076 2044 2568 7 36 58
1523 2076 2044 2568 7 34 60
1524 2076 2048 2568 6 35 59
1525 2076 2044 2568 6 34 57
1526 2076 2044 2568 3 34 57
1527 2076 2044 2568 6 34 56
1528 2076 2048 2568 5 32 57
1529 2076 2048 2568 8 34 57
1530 2076 2048 2568 7 34 57
1531 2076 2048 2568 6 33 57
1532 2076 2048 2568 5 33 58
1533 2076 2048 2568 4 34 57
1534 2076 2048 2568 6 32 56
1535 2076 2048 2568 7 32 59
1536 2076 2048 2568 7 34 58
1537 2076 2048 2568 5 35 58
1538 2076 2048 2568 9 34 57
1539 2076 2048 2568 5 34 59
1540 2076 2048 2572 5 34 59
1541 2076 2048 2572 6 34 59
1542 2076 2048 2568 5 34 57
1543 2076 2048 2568 6 34 58
1544 2076 2048 2568 5 32 57
1545 2076 2048 2568 6 35 57
1546 2076 2048 2568 6 33 58
1547 2076 2048 2568 6 35 58
1548 2076 2048 2568 5 33 57
1549 2076 2048 2568 7 35 58
1550 2076 2048 2568 8 35 57
1551 2076 2048 2568 7 34 57
1552 2076 2048 2568 5 32 58
1553 2076 2048 2568 6 36 58
1554 2076 2048 2568 6 34 59
1555 2076 2048 2568 7 33 58
1556 2076 2048 2568 6 35 57
1557 2076 2048 2568 6 33 57
1558 2076 2048 2568 5 35 57
1559 2076 2048 2568 7 35 57
1560 2076 2048 2568 8 34 58
1561 2076 2048 2568 7 33 57
1562 2076 2048 2568 5 34 57
1563 2072 2048 2568 4 35 58
1564 2076 2048 2568 6 32 59
1565 2076 2048 2568 6 35 59
1566 2076 2048 2568 5 36 59
1567 2076 2048 2568 7 33 56
1568 2076 2048 2568 7 34 57
1569 2076 2048 2568 6 33 58
1570 2076 2048 2568 4 33 57
1571 2076 2048 2568 7 35 58
1572 2076 2048 2568 5 37 57
1573 2076 2048 2568 6 34 57
1574 2076 2048 2568 5 35 57
1575 2076 2048 2568 8 33 57
1576 2076 2048 2568 8 33 57
1577 2072 2048 2568 5 35 57
1578 2072 2048 2568 6 36 57
1579 2072 2048 2568 6 34 58
1580 2072 2048 2568 7 35 56
1581 2072 2048 2568 6 35 58
1582 2072 2048 2568 6 34 56
1583 2072 2048 2568 5 35 58
1584 2072 2048 2568 7 31 58
1585 2072 2048 2568 7 34 56
1586 2076 2048 2568 6 34 57
1587 2076 2048 2568 8 35 57
1588 2076 2048 2568 6 33 59
1589 2076 2048 2568 4 35 56
1590 2076 2048 2568 8 33 56
1591 2076 2048 2568 7 35 57
1592 2076 2048 2568 7 33 58
1593 2076 2048 2568 7 32 59
1594 2076 2048 2568 6 34 58
1595 2076 2048 2568 7 32 59
1596 2076 2048 2568 4 34 58
1597 2076 2048 2568 5 34 57
1598 2072 2048 2568 10 34 58
1599 2076 2048 2568 5 33 57
1600 2076 2048 2568 5 32 58
1601 2076 2048 2568 7 35 56
1602 2076 2048 2568 5 36 58
1603 2076 2048 2568 6 33 57
1604 2076 2048 2568 6 35 58
1605 2076 2048 2568 6 33 58
1606 2076 2048 2568 8 35 59
1607 2076 2044 2568 6 36 59
1608 2076 2044 2568 4 34 59
1609 2076 2044 2568 5 34 59
1610 2076 2044 2568 6 35 57
1611 2076 2044 2568 6 35 58
1612 2076 2044 2568 5 33 59
1613 2076 2044 2568 6 34 59
1614 2076 2048 2568 5 37 58
1615 2076 2048 2568 6 33 57
1616 2076 2048 2568 7 34 57
1617 2076 2048 2568 7 35 58
1618 2076 2044 2568 7 33 56
1619 2076 2048 2568 4 31 57
1620 2076 2048 2568 5 33 58
1621 2076 2048 2568 6 34 57
1622 2076 2048 2568 6 33 58
1623 2076 2048 2572 6 32 58
1624 2076 2048 2568 5 32 57
1625 2076 2048 2568 6 34 57
1626 2076 2048 2568 7 35 59
1627 2076 2048 2568 5 33 58
1628 2076 2048 2568 4 35 57
1629 2076 2048 2568 7 34 57
1630 2076 2048 2568 6 34 58
1631 2076 2044 2568 7 33 57
1632 2076 2044 2564 7 32 57
1633 2076 2048 2568 6 34 59
1634 2076 2048 2564 6 33 59
1635 2076 2044 2568 8 33 59
1636 2076 2048 2568 7 33 57
1637 2076 2048 2564 6 35 57
1638 2076 2048 2564 6 32 56
1639 2076 2048 2564 4 32 57
1640 2076 2048 2568 6 32 58
1641 2076 2048 2568 6 34 59
1642 2076 2048 2568 5 33 58
1643 2076 2048 2568 5 35 55
1644 2076 2048 2568 5 35 57
1645 2076 2048 2568 5 34 57
1646 2076 2048 2568 5 34 59
1647 2076 2048 2568 6 36 56
1648 2076 2048 2568 6 34 58
1649 2076 2044 2568 7 33 58
1650 2076 2048 2568 7 32 58
1651 2076 2048 2568 8 36 57
1652 2076 2048 2568 5 34 58
1653 2076 2044 2568 5 34 56
1654 2076 2048 2568 6 36 57
1655 2076 2048 2568 7 34 58
1656 2076 2048 2568 5 36 59
1657 2076 2048 2568 6 33 57
1658 2076 2048 2568 7 35 58
1659 2076 2048 2568 7 35 58
1660 2076 2048 2568 5 33 58
1661 2076 2048 2568 7 33 59
1662 2076 2048 2568 5 34 57
1663 2076 2048 2572 5 35 59
1664 2076 2048 2572 7 34 57
1665 2076 2048 2572 6 35 57
1666 2076 2048 2572 8 34 57
1667 2076 2048 2572 6 33 57
1668 2076 2044 2572 5 33 56
1669 2076 2044 2572 7 35 57
1670 2076 2048 2568 5 33 58
1671 2076 2044 2568 7 34 57
1672 2076 2044 2568 6 34 57
1673 2076 2044 2568 5 35 60
1674 2080 2044 2568 5 33 57
1675 2080 2048 2568 4 33 56
1676 2076 2048 2568 6 33 56
1677 2080 2048 2572 4 34 58
1678 2076 2048 2572 7 35 57
1679 2076 2048 2568 5 33 57
1680 2076 2048 2568 8 32 59
1681 2076 2048 2568 8 36 58
1682 2076 2048 2568 5 34 58
1683 2076 2044 2568 5 35 57
1684 2076 2044 2568 7 36 58
1685 2076 2044 2568 4 35 59
1686 2076 2044 2568 5 34 58
1687 2076 2044 2568 7 34 58
1688 2076 2044 2568 7 36 57
1689 2076 2048 2568 6 34 59
1690 2076 2044 2568 6 33 56
1691 2076 2048 2568 6 34 56
1692 2076 2048 2568 5 35 56
1693 2076 2048 2568 8 34 57
1694 2076 2044 2564 5 33 57
1695 2076 2044 2568 5 33 59
1696 2076 2044 2568 6 35 58
1697 2076 2044 2568 8 33 58
1698 2076 2044 2564 5 33 58
1699 2076 2044 2564 5 35 57
1700 2076 2044 2564 6 33 58
1701 2076 2048 2568 7 34 58
1702 2076 2048 2568 6 33 57
1703 2076 2044 2568 6 34 56
1704 2076 2048 2568 7 32 57
1705 2076 2048 2568 6 33 59
1706 2076 2048 2568 7 35 58
1707 2076 2048 2568 7 36 56
1708 2076 2048 2568 6 32 57
1709 2076 2048 2568 6 35 57
1710 2076 2048 2568 6 35 59
1711 2076 2048 2568 7 32 58
1712 2076 2048 2568 4 34 57
1713 2076 2048 2572 6 33 58
1714 2076 2048 2568 9 35 58
1715 2076 2048 2568 6 33 58
1716 2076 2048 2568 6 32 58
1717 2072 2048 2568 7 34 57
1718 2072 2048 2568 8 34 59
1719 2072 2048 2568 7 32 57
1720 2076 2048 2568 8 33 57
1721 2076 2048 2568 7 34 57
1722 2076 2048 2568 5 35 58
1723 2076 2048 2568 6 34 57
1724 2076 2048 2568 6 33 58
1725 2076 2048 2568 6 36 60
1726 2076 2048 2568 5 35 58
1727 2076 2044 2568 5 34 57
1728 2076 2048 2568 6 35 57
1729 2076 2048 2568 5 34 57
1730 2076 2048 2568 6 35 59
1731 2076 2048 2568 6 35 59
1732 2076 2048 2568 7 32 58
1733 2076 2048 2568 6 32 58
1734 2076 2048 2568 6 34 58
1735 2076 2048 2568 5 32 57
1736 2076 2048 2568 8 34 59
1737 2076 2048 2568 6 34 58
1738 2076 2048 2568 5 35 57
1739 2076 2048 2568 7 31 57
1740 2076 2048 2568 6 33 56
1741 2076 2048 2568 4 34 58
1742 2076 2048 2568 6 34 57
1743 2076 2048 2568 6 35 58
1744 2076 2048 2568 6 34 57
1745 2076 2048 2568 6 35 57
1746 2076 2048 2568 6 33 58
1747 2076 2048 2568 5 33 58
1748 2076 2048 2568 5 33 58
1749 2076 2048 2568 4 34 56
1750 2076 2048 2568 5 34 59
1751 2076 2048 2568 4 32 58
1752 2076 2048 2568 6 33 60
1753 2076 2044 2568 7 35 55
1754 2076 2044 2568 6 34 57
1755 2076 2044 2568 7 33 58
1756 2076 2048 2568 5 34 57
1757 2076 2048 2568 7 34 57
1758 2076 2048 2568 5 34 56
1759 2076 2048 2568 6 35 56
1760 2076 2048 2568 6 35 57
1761 2076 2048 2568 5 34 58
1762 2076 2048 2568 6 34 56
1763 2076 2048 2568 6 33 58
1764 2076 2048 2568 6 35 57
1765 2076 2048 2568 7 34 57
1766 2076 2048 2568 6 35 57
1767 2076 2048 2568 5 33 58
1768 2076 2048 2568 6 34 59
1769 2076 2048 2568 5 36 58
1770 2076 2048 2568 5 34 60
1771 2076 2048 2568 6 34 56
1772 2076 2048 2568 7 35 57
1773 2076 2048 2568 5 35 57
1774 2076 2048 2568 6 34 57
1775 2076 2048 2568 5 32 59
1776 2076 2048 2568 8 35 56
1777 2076 2048 2568 4 34 58
1778 2076 2048 2568 7 34 57
1779 2076 2048 2568 7 34 58
1780 2076 2048 2568 7 33 59
1781 2076 2048 2568 6 34 57
1782 2076 2048 2568 7 33 58
1783 2076 2048 2568 6 35 58
1784 2076 2048 2568 5 32 58
1785 2076 2048 2564 6 33 57
1786 2076 2048 2564 5 35 58
1787 2076 2048 2564 6 34 57
1788 2076 2048 2564 6 34 59
1789 2076 2048 2564 5 35 57
1790 2076 2048 2564 5 36 56
1791 2076 2048 2564 5 33 58
1792 2076 2048 2564 9 35 57
1793 2076 2048 2568 6 34 56
1794 2076 2048 2568 7 33 56
1795 2076 2048 2568 6 33 58
1796 2076 2048 2568 4 35 59
1797 2076 2048 2568 6 34 57
1798 2076 2048 2568 6 33 59
1799 2076 2048 2568 4 34 58
1800 2076 2048 2568 6 34 57
1801 2076 2048 2568 7 33 59
1802 2076 2048 2568 5 33 58
1803 2076 2048 2568 6 33 58
1804 2076 2048 2568 6 34 57
1805 2076 2048 2568 5 33 57
1806 2076 2048 2568 7 33 57
1807 2076 2044 2568 5 34 57
1808 2076 2044 2568 3 33 57
1809 2076 2048 2568 5 33 55
1810 2076 2048 2568 6 33 57
1811 2076 2048 2568 7 34 57
1812 2076 2048 2568 7 34 56
1813 2076 2048 2568 5 35 58
1814 2076 2048 2568 7 34 56
1815 2076 2048 2564 5 33 59
1816 2076 2048 2564 6 32 59
1817 2076 2048 2564 5 34 57
1818 2076 2048 2564 6 34 58
1819 2076 2048 2564 5 35 57
1820 2076 2048 2564 6 34 56
1821 2076 2048 2564 8 35 56
1822 2076 2048 2564 6 35 57
1823 2076 2048 2564 5 35 59
1824 2076 2048 2564 7 35 57
1825 2076 2048 2564 7 34 58
1826 2076 2048 2564 3 32 58
1827 2076 2048 2564 7 35 58
1828 2076 2048 2564 7 35 58
1829 2076 2048 2568 8 35 58
1830 2076 2048 2568 4 33 58
1831 2076 2048 2564 7 34 59
1832 2076 2048 2564 6 33 57
1833 2076 2048 2564 7 36 58
1834 2076 2048 2568 7 36 57
1835 2076 2048 2568 7 34 58
1836 2076 2048 2568 6 36 58
1837 2076 2048 2568 5 34 58
1838 2076 2048 2568 5 34 56
1839 2076 2048 2568 4 35 57
1840 2076 2044 2568 7 35 58
1841 2076 2044 2568 7 34 57
1842 2076 2048 2568 5 36 57
1843 2076 2048 2568 6 34 58
1844 2076 2048 2568 6 33 58
1845 2076 2048 2568 4 34 58
1846 2076 2048 2568 5 34 57
1847 2076 2048 2568 5 33 57
1848 2076 2048 2568 6 33 58
1849 2076 2048 2568 6 33 57
1850 2076 2048 2568 6 35 58
1851 2076 2048 2568 7 34 57
1852 2076 2048 2568 5 33 56
1853 2076 2044 2568 5 33 58
1854 2076 2048 2568 6 35 60
1855 2076 2048 2568 5 33 56
1856 2076 2048 2568 5 36 57
1857 2076 2044 2568 6 32 57
1858 2076 2048 2568 7 34 59
1859 2076 2048 2568 7 32 58
1860 2076 2048 2568 6 32 57
1861 2076 2048 2568 6 35 57
1862 2076 2048 2568 6 35 58
1863 2076 2048 2568 5 34 59
1864 2076 2044 2564 7 34 57
1865 2076 2048 2568 8 33 59
1866 2076 2048 2568 7 31 57
1867 2076 2044 2568 6 33 57
1868 2076 2048 2568 5 35 60
1869 2076 2044 2568 4 37 57
1870 2076 2044 2568 5 35 58
1871 2076 2048 2568 6 36 59
1872 2076 2048 2568 7 33 57
1873 2076 2048 2568 6 34 57
1874 2076 2044 2568 7 31 57
1875 2076 2048 2568 7 33 58
1876 2076 2048 2568 4 32 57
1877 2076 2048 2568 6 33 60
1878 2076 2048 2568 5 32 58
1879 2076 2044 2568 5 33 58
1880 2076 2044 2568 6 35 57
1881 2076 2044 2568 6 34 58
1882 2076 2044 2568 5 33 56
1883 2076 2044 2568 5 34 59
1884 2076 2044 2568 6 33 58
1885 2076 2044 2568 6 33 57
1886 2076 2048 2568 4 34 57
1887 2076 2048 2568 5 33 56
1888 2076 2048 2572 6 32 56
1889 2076 2048 2568 4 34 58
1890 2076 2048 2572 5 35 57
1891 2076 2048 2572 5 37 57
1892 2076 2048 2572 4 34 60
1893 2076 2048 2572 6 33 59
1894 2076 2048 2572 4 32 58
1895 2076 2044 2568 8 35 59
1896 2076 2044 2568 6 34 57
1897 2076 2048 2568 7 35 57
1898 2072 2048 2568 7 33 58
1899 2076 2048 2568 5 31 58
1900 2076 2048 2568 7 35 57
1901 2076 2048 2568 5 35 57
1902 2076 2048 2568 7 34 56
1903 2076 2048 2568 5 34 57
1904 2076 2048 2568 5 35 58
1905 2076 2048 2568 5 34 56
1906 2076 2048 2568 5 34 59
1907 2076 2048 2568 6 33 57
1908 2076 2048 2568 5 32 59
1909 2076 2048 2568 5 33 59
1910 2076 2048 2568 7 36 58
1911 2076 2044 2568 5 32 58
1912 2076 2048 2568 7 34 57
1913 2076 2048 2568 7 34 59
1914 2076 2048 2568 5 34 59
1915 2076 2048 2568 5 34 57
1916 2072 2048 2568 6 36 57
1917 2076 2044 2568 6 35 57
1918 2076 2048 2568 6 34 58
1919 2076 2044 2568 6 32 59
1920 2076 2044 2568 5 33 58
1921 2076 2044 2568 6 33 58
1922 2076 2048 2568 8 34 58
1923 2076 2044 2568 5 32 57
1924 2076 2048 2568 4 33 57
1925 2076 2048 2568 7 33 57
1926 2076 2048 2568 3 35 57
1927 2076 2048 2568 5 33 58
1928 2076 2048 2568 7 34 58
1929 2076 2048 2568 6 35 58
1930 2076 2048 2568 7 32 59
1931 2076 2048 2568 7 34 58
1932 2076 2048 2568 7 31 59
1933 2076 2044 2568 5 34 59
1934 2076 2048 2568 8 34 58
1935 2076 2048 2564 7 34 58
1936 2076 2048 2564 5 32 59
1937 2076 2048 2564 6 34 57
1938 2076 2048 2564 6 33 57
1939 2076 2048 2564 6 34 57
1940 2076 2048 2564 5 33 57
1941 2076 2048 2564 4 32 58
1942 2076 2048 2564 5 34 57
1943 2076 2048 2564 6 35 59
1944 2076 2048 2568 7 35 59
1945 2076 2048 2568 6 33 60
1946 2076 2044 2568 6 33 58
1947 2076 2048 2568 6 33 57
1948 2076 2048 2568 4 35 57
1949 2076 2048 2568 6 34 57
1950 2076 2048 2568 6 33 57
1951 2076 2044 2568 5 35 57
1952 2076 2044 2568 7 34 58
1953 2076 2044 2568 7 32 58
1954 2076 2044 2568 6 32 58
1955 2076 2044 2568 4 32 57
1956 2076 2044 2568 5 33 57
1957 2076 2044 2568 5 35 58
1958 2076 2044 2568 6 33 57
1959 2076 2044 2572 7 33 57
1960 2076 2044 2572 6 34 60
1961 2076 2044 2572 5 34 59
1962 2076 2044 2572 7 34 59
1963 2076 2044 2572 6 33 57
1964 2076 2044 2572 5 31 57
1965 2076 2044 2568 4 34 57
1966 2076 2044 2572 7 34 57
1967 2076 2044 2572 7 34 57
1968 2076 2044 2572 6 34 58
1969 2076 2044 2572 6 33 58
1970 2076 2044 2572 8 33 58
1971 2076 2048 2572 7 34 58
1972 2076 2048 2572 6 35 58
1973 2076 2048 2568 7 33 58
1974 2076 2048 2572 5 33 59
1975 2076 2048 2572 7 34 57
1976 2076 2048 2572 5 33 57
1977 2076 2048 2568 7 34 58
1978 2076 2048 2568 5 36 56
1979 2076 2048 2568 7 35 56
1980 2076 2048 2568 4 33 57
1981 2076 2048 2568 7 32 56
1982 2076 2048 2568 7 34 58
1983 2076 2048 2568 6 32 57
1984 2076 2048 2568 6 33 57
1985 2076 2048 2568 6 33 58
1986 2076 2048 2568 7 33 58
1987 2076 2048 2568 6 34 57
1988 2076 2048 2568 6 34 55
1989 2076 2048 2568 5 32 58
1990 2076 2048 2568 6 33 59
1991 2072 2048 2568 5 34 59
1992 2076 2048 2568 5 33 58
1993 2076 2048 2568 7 34 56
1994 2076 2048 2568 6 34 59
1995 2076 2048 2568 5 36 59
1996 2076 2048 2568 6 34 58
1997 2076 2048 2568 6 33 59
1998 2076 2048 2568 5 34 58
1999 2076 2048 2568 5 36 59
2000 2076 2048 2568 6 32 57
2001 2076 2048 2568 5 34 57
2002 2076 2048 2568 5 34 57
2003 2076 2048 2568 7 34 58
2004 2076 2048 2568 7 32 58
2005 2076 2048 2568 5 34 57
2006 2076 2048 2568 5 34 59
2007 2076 2048 2568 6 34 59
2008 2076 2048 2568 7 33 58
2009 2076 2048 2568 7 34 58
2010 2076 2048 2572 6 33 59
2011 2076 2048 2572 4 34 56
2012 2076 2048 2568 6 33 57
2013 2076 2048 2568 7 36 59
2014 2076 2048 2568 7 35 57
2015 2076 2048 2568 5 34 56
2016 2076 2048 2568 6 32 55
2017 2076 2048 2568 6 34 57
2018 2076 2048 2564 8 32 58
2019 2076 2048 2568 5 35 58
2020 2076 2048 2568 4 36 58
2021 2076 2044 2568 7 33 58
2022 2076 2044 2568 6 35 56
2023 2076 2044 2568 6 34 59
2024 2076 2044 2568 4 33 60
2025 2076 2044 2568 7 34 57
2026 2076 2044 2568 5 33 58
2027 2076 2044 2568 6 30 56
2028 2076 2044 2568 4 35 58
2029 2076 2044 2568 7 34 59
2030 2072 2044 2568 6 34 59
2031 2072 2044 2568 6 34 57
2032 2072 2048 2568 5 35 57
2033 2072 2044 2568 6 33 59
2034 2072 2048 2568 5 32 58
2035 2072 2044 2568 7 35 58
2036 2072 2044 2568 5 32 58
2037 2072 2044 2568 5 33 56
2038 2072 2048 2568 7 31 57
2039 2072 2044 2568 6 34 54
2040 2076 2044 2568 6 33 56
2041 2076 2044 2568 4 33 58
2042 2076 2044 2568 5 34 55
2043 2076 2044 2568 4 34 58
2044 2076 2048 2568 7 37 59
2045 2076 2048 2568 5 33 57
2046 2076 2048 2568 5 34 57
2047 2076 2048 2568 8 34 59
2048 2076 2048 2568 6 35 57
2049 2072 2048 2568 6 34 58
2050 2072 2048 2568 5 35 57
2051 2072 2048 2568 6 33 58
2052 2072 2048 2568 6 34 57
2053 2072 2048 2568 8 34 56
2054 2072 2048 2568 5 33 59
2055 2072 2048 2568 5 32 56
2056 2072 2048 2568 6 34 56
2057 2072 2044 2568 5 34 57
2058 2076 2044 2568 7 33 58
2059 2076 2044 2568 4 36 56
2060 2076 2044 2568 5 36 58
2061 2076 2044 2568 4 34 57
2062 2076 2044 2568 7 33 57
2063 2076 2044 2568 5 36 57
2064 2076 2044 2568 5 35 57
2065 2076 2044 2568 6 35 57
2066 2076 2044 2564 7 33 58
2067 2076 2044 2568 7 34 57
2068 2076 2044 2564 6 33 59
2069 2076 2044 2568 5 34 56
2070 2076 2044 2568 5 34 57
2071 2076 2044 2568 5 32 57
2072 2076 2044 2568 5 32 59
2073 2076 2048 2568 5 32 57
2074 2076 2048 2568 6 36 56
2075 2076 2048 2568 4 33 58
2076 2076 2048 2568 6 33 57
2077 2076 2048 2568 5 36 58
2078 2076 2048 2568 6 33 58
2079 2076 2048 2568 6 33 56
2080 2076 2048 2568 8 32 60
2081 2076 2044 2564 6 35 57
2082 2076 2048 2568 6 33 58
2083 2076 2044 2568 5 32 57
2084 2076 2044 2568 6 36 56
2085 2076 2044 2568 6 36 58
2086 2076 2044 2572 5 33 58
2087 2076 2044 2572 6 34 57
2088 2076 2048 2572 7 35 58
2089 2076 2048 2572 5 33 59
2090 2076 2048 2572 6 35 59
2091 2076 2048 2568 6 33 58
2092 2076 2048 2568 5 34 60
2093 2076 2048 2568 4 34 57
2094 2076 2048 2568 6 34 58
2095 2076 2048 2568 7 36 58
2096 2076 2048 2568 5 35 59
2097 2076 2048 2568 7 34 57
2098 2076 2048 2568 6 33 58
2099 2076 2048 2568 5 33 59
2100 2076 2048 2568 7 35 58
2101 2076 2048 2568 5 34 58
2102 2076 2048 2568 6 35 58
2103 2076 2048 2568 7 34 58
2104 2076 2048 2568 5 34 55
2105 2072 2044 2568 6 35 58
2106 2072 2044 2568 5 34 58
2107 2072 2044 2568 6 34 58
2108 2072 2048 2568 6 35 59
2109 2072 2048 2564 8 36 59
2110 2072 2048 2564 8 36 57
2111 2072 2048 2564 5 35 58
2112 2072 2048 2564 5 32 59
2113 2072 2048 2564 7 33 59
2114 2076 2044 2564 4 34 56
2115 2072 2048 2564 5 32 57
2116 2072 2044 2564 6 33 56
2117 2072 2044 2568 6 33 59
2118 2072 2048 2568 6 34 60
2119 2076 2048 2568 6 33 58
2120 2076 2048 2568 5 36 57
2121 2076 2048 2568 7 36 58
2122 2076 2048 2572 8 36 57
2123 2076 2048 2568 6 32 58
2124 2076 2048 2568 6 31 60
2125 2076 2048 2572 6 36 57
2126 2080 2044 2572 9 35 59
2127 2080 2044 2572 6 32 57
2128 2080 2044 2572 6 32 58
2129 2080 2044 2572 6 32 58
2130 2080 2044 2568 6 35 57
2131 2076 2044 2568 5 33 58
2132 2076 2044 2568 7 33 59
2133 2076 2044 2568 7 34 57
2134 2076 2044 2568 6 33 58
2135 2076 2044 2568 6 35 58
2136 2076 2044 2568 6 35 56
2137 2076 2048 2568 5 37 57
2138 2076 2044 2568 7 34 56
2139 2076 2048 2568 5 32 58
2140 2076 2048 2568 5 33 59
2141 2076 2048 2568 7 35 57
2142 2076 2048 2568 6 32 58
2143 2076 2048 2568 5 33 55
2144 2076 2048 2568 6 33 59
2145 2076 2048 2568 7 34 56
2146 2076 2048 2568 5 34 58
2147 2076 2048 2568 5 35 57
2148 2076 2048 2568 7 34 57
2149 2076 2048 2568 6 34 58
2150 2076 2048 2568 6 33 57
2151 2076 2048 2568 6 32 57
2152 2076 2048 2568 6 36 58
2153 2076 2048 2568 6 33 58
2154 2076 2044 2568 5 32 58
2155 2076 2044 2568 6 34 58
2156 2076 2044 2568 6 34 58
2157 2076 2044 2568 5 33 57
2158 2076 2044 2568 6 35 57
2159 2076 2044 2568 7 34 57
2160 2076 2044 2568 6 34 57
2161 2076 2044 2568 6 34 58
2162 2076 2044 2568 7 32 56
2163 2076 2044 2568 5 35 57
2164 2076 2044 2568 5 33 59
2165 2076 2044 2568 5 33 58
2166 2076 2044 2568 5 33 58
2167 2076 2044 2568 5 33 57
2168 2076 2044 2568 5 31 58
2169 2076 2044 2564 7 33 56
2170 2076 2048 2568 7 34 58
2171 2076 2048 2564 5 36 57
2172 2076 2048 2564 6 34 57
2173 2076 2048 2564 4 31 57
2174 2076 2048 2564 5 34 57
2175 2076 2048 2564 5 35 58
2176 2076 2048 2564 5 34 59
2177 2076 2048 2564 5 35 57
2178 2076 2048 2564 6 36 58
2179 2076 2044 2564 4 33 56
2180 2072 2044 2568 6 36 58
2181 2076 2048 2568 6 34 58
2182 2076 2048 2568 6 33 56
2183 2072 2048 2564 5 37 55
2184 2076 2048 2564 4 34 58
2185 2076 2048 2568 5 32 57
2186 2076 2048 2568 4 34 57
2187 2072 2048 2568 6 34 58
2188 2076 2048 2568 6 35 59
2189 2076 2048 2568 5 32 56
2190 2076 2048 2568 4 33 58
2191 2076 2048 2572 6 36 58
2192 2076 2048 2572 7 36 58
2193 2076 2048 2572 5 34 57
2194 2076 2048 2572 7 34 59
2195 2076 2048 2568 5 33 59
2196 2076 2048 2568 5 34 59
2197 2076 2048 2568 6 36 57
2198 2076 2044 2568 7 34 58
2199 2076 2048 2572 4 35 60
2200 2076 2044 2568 7 33 59
2201 2076 2048 2568 5 32 58
2202 2076 2048 2568 5 33 57
2203 2076 2048 2568 5 35 55
2204 2076 2044 2568 5 34 55
2205 2076 2044 2568 6 34 57
2206 2076 2048 2568 7 36 59
2207 2076 2044 2564 3 34 58
2208 2076 2048 2564 5 33 58
2209 2076 2048 2568 5 35 58
2210 2076 2048 2568 6 36 59
2211 2076 2048 2568 7 31 57
2212 2076 2048 2568 5 36 58
2213 2076 2048 2568 7 35 58
2214 2076 2048 2568 5 35 58
2215 2076 2048 2568 5 33 58
2216 2076 2048 2568 6 35 59
2217 2076 2048 2568 6 33 59
2218 2076 2048 2568 7 35 56
2219 2076 2048 2568 4 33 58
2220 2076 2048 2572 4 33 58
2221 2076 2048 2572 6 34 56
2222 2076 2048 2568 6 34 58
2223 2076 2048 2572 4 35 58
2224 2076 2048 2572 5 34 58
2225 2076 2048 2568 5 36 59
2226 2076 2048 2568 8 35 58
2227 2076 2048 2568 6 32 59
2228 2076 2048 2568 5 36 57
2229 2076 2048 2568 6 35 58
2230 2076 2048 2568 4 32 56
2231 2076 2048 2568 7 33 57
2232 2076 2048 2568 5 34 57
2233 2076 2048 2568 5 35 58
2234 2076 2048 2568 6 35 58
2235 2076 2048 2568 6 32 57
2236 2076 2048 2568 6 34 57
2237 2076 2048 2568 6 32 56
2238 2072 2048 2568 6 33 57
2239 2072 2048 2564 6 34 55
2240 2072 2048 2568 6 33 58
2241 2072 2048 2568 5 31 59
2242 2072 2048 2568 4 34 58
2243 2076 2048 2568 6 33 58
2244 2076 2048 2568 5 33 59
2245 2072 2048 2568 6 33 58
2246 2072 2048 2568 4 33 58
2247 2072 2048 2568 4 35 58
2248 2072 2048 2568 5 33 56
2249 2072 2048 2568 4 33 59
2250 2072 2048 2568 5 32 59
2251 2072 2052 2568 7 34 58
2252 2072 2048 2568 6 35 56
2253 2072 2048 2568 5 34 57
2254 2076 2048 2568 6 34 57
2255 2076 2052 2568 5 34 58
2256 2076 2052 2568 4 34 55
2257 2076 2052 2568 7 34 58
2258 2076 2052 2568 6 33 57
2259 2076 2052 2568 7 33 59
2260 2076 2052 2568 4 34 57
2261 2076 2052 2568 6 32 58
2262 2076 2052 2568 7 35 58
2263 2076 2048 2568 6 36 57
2264 2076 2048 2568 7 34 57
2265 2076 2048 2568 7 37 57
2266 2076 2048 2564 7 34 57
2267 2076 2048 2564 7 36 57
2268 2076 2048 2564 4 32 57
2269 2076 2048 2564 5 33 56
2270 2076 2048 2564 6 34 57
2271 2076 2048 2564 7 33 59
2272 2076 2048 2564 6 33 57
2273 2076 2048 2564 7 32 57
2274 2076 2048 2564 5 33 58
2275 2072 2048 2564 6 32 57
2276 2076 2048 2564 6 34 57
2277 2072 2048 2564 5 33 58
2278 2076 2048 2568 7 32 58
2279 2076 2048 2568 4 35 56
2280 2076 2048 2568 5 34 57
2281 2076 2048 2568 6 32 59
2282 2076 2048 2568 7 33 57
2283 2076 2048 2568 5 34 58
2284 2076 2048 2568 6 34 57
2285 2076 2048 2568 5 32 58
2286 2076 2048 2568 7 34 59
2287 2076 2048 2568 6 35 57
2288 2076 2052 2568 5 34 57
2289 2076 2048 2568 5 35 57
2290 2076 2048 2568 5 34 59
2291 2076 2048 2568 6 33 58
2292 2076 2048 2568 5 33 57
2293 2076 2048 2568 5 37 58
2294 2076 2048 2568 7 34 57
2295 2076 2048 2568 5 34 57
2296 2076 2048 2568 5 33 59
2297 2076 2048 2568 6 33 59
2298 2076 2048 2568 4 34 58
2299 2076 2048 2568 4 32 58
2300 2076 2048 2568 8 35 57
2301 2076 2048 2568 7 33 58
2302 2076 2048 2572 6 36 59
2303 2076 2048 2568 9 32 57
2304 2076 2048 2568 6 32 59
2305 2072 2048 2572 5 36 57
2306 2072 2048 2572 7 34 58
2307 2072 2048 2572 4 35 60
2308 2072 2048 2572 5 33 59
2309 2072 2048 2572 6 33 58
2310 2076 2048 2572 7 36 58
2311 2076 2048 2568 6 34 58
2312 2076 2048 2568 6 34 58
2313 2076 2048 2568 5 35 58
2314 2076 2048 2568 3 32 58
2315 2076 2048 2568 6 34 57
2316 2076 2048 2568 4 34 59
2317 2076 2048 2568 5 32 58
2318 2076 2048 2568 5 34 58
2319 2076 2048 2568 6 34 58
2320 2076 2048 2568 5 36 57
2321 2076 2048 2568 9 33 57
2322 2076 2048 2568 5 32 57
2323 2076 2048 2568 6 35 58
2324 2076 2048 2568 5 36 59
2325 2076 2048 2568 8 34 56
2326 2076 2048 2568 6 34 57
2327 2076 2048 2568 5 35 58
2328 2076 2048 2568 4 33 58
2329 2076 2048 2568 5 35 56
2330 2076 2048 2568 6 36 58
2331 2076 2048 2568 6 36 58
2332 2076 2048 2568 6 34 59
2333 2076 2048 2568 6 34 58
2334 2076 2048 2568 7 33 57
2335 2076 2048 2568 6 34 57
2336 2076 2048 2568 5 34 58
2337 2076 2048 2568 6 34 59
2338 2076 2048 2568 4 35 58
2339 2072 2048 2568 6 34 58
2340 2072 2048 2568 6 35 58
2341 2072 2048 2568 5 34 58
2342 2072 2048 2568 5 34 58
2343 2072 2044 2568 5 35 58
2344 2072 2044 2568 5 34 58
2345 2072 2048 2568 6 32 58
2346 2072 2048 2568 6 33 58
2347 2076 2048 2568 4 35 60
2348 2076 2048 2568 8 33 57
2349 2076 2048 2572 5 34 60
2350 2076 2048 2568 5 34 57
2351 2076 2048 2568 6 34 56
2352 2076 2052 2572 7 32 57
2353 2076 2048 2572 4 32 58
2354 2076 2048 2568 7 32 59
2355 2076 2048 2568 5 34 57
2356 2076 2048 2568 5 34 57
2357 2076 2048 2568 5 33 58
2358 2076 2048 2568 4 33 57
2359 2076 2048 2568 3 35 57
2360 2076 2048 2568 5 37 58
2361 2076 2048 2568 7 35 59
2362 2076 2048 2568 6 35 56
2363 2076 2048 2568 5 34 57
2364 2076 2048 2568 6 33 57
2365 2076 2048 2568 5 33 57
2366 2076 2048 2568 6 37 59
2367 2076 2048 2568 6 35 58
2368 2076 2048 2564 5 35 58
2369 2076 2048 2564 4 34 56
2370 2076 2048 2568 6 34 57
2371 2076 2048 2568 5 34 56
2372 2076 2048 2568 7 35 57
2373 2076 2048 2568 6 32 57
2374 2076 2048 2568 6 35 57
2375 2076 2048 2568 6 31 59
2376 2076 2048 2572 5 33 56
2377 2072 2048 2572 6 34 57
2378 2076 2048 2572 6 37 58
2379 2072 2048 2572 7 33 60
2380 2072 2048 2572 5 34 56
2381 2072 2048 2572 6 35 59
2382 2076 2048 2568 4 33 58
2383 2072 2048 2568 6 35 58
2384 2072 2048 2568 4 35 57
2385 2072 2048 2568 6 35 58
2386 2072 2048 2568 4 33 59
2387 2072 2048 2568 5 36 57
2388 2072 2048 2568 7 33 58
2389 2076 2048 2564 6 33 57
2390 2076 2048 2564 6 34 57
2391 2076 2048 2564 5 34 58
2392 2076 2048 2564 6 34 58
2393 2076 2048 2564 6 34 57
2394 2076 2048 2564 7 34 58
2395 2076 2048 2568 6 33 57
2396 2076 2048 2568 6 35 57
2397 2076 2048 2568 5 33 57
2398 2076 2048 2568 5 35 59
2399 2076 2048 2568 6 33 58
2400 2076 2048 2568 6 36 58
2401 2076 2052 2568 6 33 57
2402 2076 2048 2564 5 34 58
2403 2076 2048 2564 5 34 58
2404 2076 2048 2564 6 34 58
2405 2076 2048 2564 4 34 56
2406 2076 2048 2564 6 34 56
2407 2072 2048 2564 6 32 57
2408 2072 2048 2568 6 33 59
2409 2072 2048 2568 7 35 59
2410 2072 2048 2568 6 33 59
2411 2076 2048 2568 5 32 57
2412 2072 2048 2568 5 34 59
2413 2072 2048 2568 5 33 57
2414 2072 2052 2568 6 36 58
2415 2072 2048 2568 6 34 54
2416 2076 2048 2568 6 34 57
2417 2076 2048 2568 7 33 57
2418 2076 2048 2568 5 33 58
2419 2072 2048 2564 4 32 58
2420 2076 2048 2564 6 35 57
2421 2072 2048 2564 7 34 58
2422 2076 2048 2564 6 35 59
2423 2076 2048 2568 4 34 59
2424 2072 2048 2564 6 34 60
2425 2072 2048 2564 7 34 59
2426 2072 2048 2564 5 32 57
2427 2072 2048 2564 4 32 56
2428 2072 2048 2564 7 34 57
2429 2072 2048 2564 4 33 57
2430 2072 2048 2564 5 35 58
2431 2072 2048 2564 6 34 57
2432 2072 2048 2564 5 34 58
2433 2072 2048 2564 7 34 60
2434 2076 2048 2564 5 33 57
2435 2076 2048 2564 5 34 56
2436 2076 2048 2564 6 32 59
2437 2076 2048 2568 6 33 58
2438 2076 2048 2564 6 34 58
2439 2076 2052 2564 6 34 59
2440 2076 2052 2564 5 34 58
2441 2072 2052 2564 5 34 58
2442 2072 2052 2564 8 33 58
2443 2072 2048 2564 5 34 58
2444 2076 2048 2564 6 34 57
2445 2076 2048 2564 6 33 57
2446 2076 2048 2568 6 33 58
2447 2076 2048 2564 6 35 57
2448 2076 2048 2568 5 35 58
2449 2076 2048 2564 6 34 57
2450 2072 2048 2568 4 33 57
2451 2072 2048 2568 6 34 58
2452 2076 2048 2568 5 34 57
2453 2072 2048 2568 4 33 57
2454 2072 2048 2568 5 33 57
2455 2072 2048 2568 5 34 58
2456 2076 2048 2568 4 34 58
2457 2076 2048 2568 4 33 58
2458 2076 2048 2568 7 35 58
2459 2076 2048 2572 4 33 58
2460 2076 2048 2568 5 34 57
2461 2072 2048 2572 6 33 59
2462 2076 2048 2572 5 33 57
2463 2076 2048 2568 5 36 59
2464 2076 2048 2568 6 35 58
2465 2076 2048 2568 8 33 58
2466 2076 2048 2568 6 34 59
2467 2076 2048 2568 5 34 57
2468 2076 2048 2568 6 36 56
2469 2076 2048 2568 6 34 58
2470 2076 2048 2568 5 36 59
2471 2076 2048 2568 7 32 57
2472 2076 2048 2568 4 33 58
2473 2076 2048 2568 6 34 60
2474 2072 2048 2568 7 35 57
2475 2072 2048 2568 7 34 58
2476 2072 2048 2568 5 33 57
2477 2072 2048 2568 5 32 57
2478 2072 2048 2568 8 35 57
2479 2072 2048 2568 7 35 58
2480 2076 2048 2568 5 33 59
2481 2076 2048 2568 8 34 59
2482 2076 2048 2568 7 34 57
2483 2076 2048 2568 7 34 57
2484 2076 2048 2568 3 35 60
2485 2076 2048 2568 4 33 57
2486 2076 2048 2568 6 33 57
2487 2076 2048 2568 7 34 55
2488 2076 2048 2568 8 33 58
2489 2076 2048 2568 6 34 57
2490 2076 2048 2568 6 35 57
2491 2076 2048 2568 6 34 58
2492 2076 2048 2568 7 34 56
2493 2076 2048 2568 6 34 58
2494 2072 2048 2568 6 32 58
2495 2076 2048 2568 4 35 58
2496 2076 2048 2568 6 34 59
2497 2076 2052 2568 6 33 58
2498 2076 2052 2568 5 35 60
2499 2076 2048 2568 5 35 59
2500 2076 2048 2568 7 33 57
2501 2076 2048 2568 4 35 58
2502 2076 2048 2568 7 33 58
2503 2076 2048 2568 8 32 59
2504 2076 2048 2568 5 35 56
2505 2076 2048 2568 4 34 58
2506 2076 2048 2568 6 34 57
2507 2076 2048 2568 7 33 58
2508 2076 2048 2568 6 34 57
2509 2076 2048 2568 5 36 58
2510 2076 2048 2568 6 34 59
2511 2076 2048 2568 5 34 58
2512 2076 2048 2568 3 33 58
2513 2076 2048 2568 6 34 58
2514 2076 2048 2568 5 35 57
2515 2076 2048 2564 5 33 58
2516 2076 2048 2568 7 35 57
2517 2076 2048 2564 7 35 57
2518 2076 2048 2564 6 32 57
2519 2076 2048 2564 6 33 59
2520 2072 2048 2568 6 35 58
2521 2072 2048 2568 6 35 58
2522 2072 2048 2568 6 34 59
2523 2072 2048 2568 8 34 58
2524 2072 2048 2568 5 35 58
2525 2072 2048 2568 7 35 59
2526 2072 2048 2568 5 35 58
2527 2072 2048 2568 4 34 60
2528 2076 2048 2568 7 34 57
2529 2076 2048 2568 6 35 59
2530 2076 2048 2568 6 31 58
2531 2076 2048 2568 6 35 58
2532 2076 2048 2568 7 35 58
2533 2076 2048 2568 6 34 58
2534 2076 2048 2568 6 32 60
2535 2072 2048 2568 6 36 59
2536 2072 2048 2568 6 34 58
2537 2072 2048 2568 4 35 58
2538 2072 2048 2568 4 31 56
2539 2072 2048 2568 6 35 59
2540 2072 2048 2568 5 34 58
2541 2072 2048 2568 5 38 57
2542 2072 2048 2568 5 34 57
2543 2076 2048 2568 6 32 57
2544 2076 2048 2568 6 35 58
2545 2076 2048 2564 7 34 59
2546 2076 2048 2568 7 34 59
2547 2076 2048 2568 5 35 58
2548 2076 2048 2568 7 36 58
2549 2076 2048 2568 7 34 60
2550 2072 2048 2568 5 34 57
2551 2072 2048 2564 7 35 59
2552 2072 2048 2568 4 33 58
2553 2072 2048 2568 5 34 59
2554 2072 2048 2568 6 34 59
2555 2072 2048 2564 7 32 57
2556 2072 2048 2564 3 34 57
2557 2072 2048 2564 6 35 57
2558 2072 2048 2564 5 35 57
2559 2072 2048 2564 5 35 58
2560 2076 2048 2568 6 34 58
2561 2076 2048 2568 6 34 58
2562 2076 2048 2568 5 35 56
2563 2076 2048 2568 5 34 57
2564 2076 2048 2568 6 32 58
2565 2072 2048 2568 6 33 58
2566 2072 2048 2572 4 34 59
2567 2076 2048 2568 5 35 57
2568 2076 2048 2568 4 34 55
2569 2076 2048 2568 6 34 57
2570 2076 2048 2568 4 34 56
2571 2072 2048 2568 5 32 58
2572 2076 2048 2568 6 35 59
2573 2076 2048 2568 5 33 55
2574 2076 2048 2568 5 36 57
2575 2076 2048 2568 4 32 56
2576 2076 2048 2568 5 34 58
2577 2072 2048 2568 6 33 58
2578 2072 2048 2568 5 36 57
2579 2076 2048 2568 5 37 60
2580 2076 2048 2568 5 35 57
2581 2072 2048 2568 5 36 58
2582 2072 2048 2568 5 34 58
2583 2072 2048 2568 5 34 59
2584 2072 2048 2568 5 35 57
2585 2072 2048 2564 3 34 56
2586 2072 2048 2568 5 33 57
2587 2072 2048 2568 7 34 57
2588 2072 2048 2568 6 33 57
2589 2072 2048 2568 6 32 57
2590 2072 2052 2568 7 33 59
2591 2072 2048 2568 6 34 58
2592 2072 2048 2568 3 32 58
2593 2072 2048 2568 4 31 60
2594 2072 2048 2568 4 36 57
2595 2072 2048 2568 6 36 58
2596 2072 2048 2568 5 34 57
2597 2072 2048 2568 5 35 57
2598 2072 2048 2568 6 32 59
2599 2072 2048 2568 4 32 58
2600 2072 2048 2568 6 33 56
2601 2072 2048 2568 7 35 55
2602 2072 2052 2568 7 35 58
2603 2072 2052 2568 5 35 57
2604 2072 2048 2568 4 32 57
2605 2072 2048 2568 6 33 57
2606 2072 2048 2568 5 34 57
2607 2072 2048 2568 3 34 57
2608 2072 2048 2568 5 35 58
2609 2072 2048 2568 6 33 59
2610 2072 2048 2564 6 33 58
2611 2072 2048 2568 4 33 58
2612 2072 2048 2568 5 34 57
2613 2072 2048 2568 6 34 57
2614 2072 2048 2564 5 33 58
2615 2072 2048 2564 5 35 58
2616 2072 2048 2568 6 33 58
2617 2072 2048 2568 6 33 60
2618 2072 2048 2568 5 35 58
2619 2072 2048 2568 6 33 57
2620 2072 2048 2568 7 34 59
2621 2072 2048 2568 7 33 58
2622 2072 2048 2568 6 33 57
2623 2072 2048 2568 4 34 56
2624 2072 2048 2568 7 34 57
2625 2072 2048 2568 7 34 58
2626 2076 2048 2568 5 33 58
2627 2072 2048 2568 4 34 58
2628 2076 2048 2568 5 34 59
2629 2076 2048 2568 6 32 58
2630 2076 2048 2568 7 35 59
2631 2076 2048 2568 6 33 58
2632 2072 2048 2568 6 36 57
2633 2076 2048 2568 8 34 56
2634 2076 2048 2564 5 32 57
2635 2076 2048 2568 6 34 58
2636 2076 2048 2568 7 32 56
2637 2076 2048 2568 7 35 57
2638 2072 2048 2568 7 32 57
2639 2076 2048 2568 6 32 57
2640 2076 2048 2568 6 32 58
2641 2076 2048 2568 6 34 57
2642 2076 2048 2568 7 33 57
2643 2076 2048 2568 6 33 57
2644 2076 2048 2568 7 34 58
2645 2076 2048 2568 6 33 57
2646 2076 2048 2568 5 33 59
2647 2076 2048 2568 5 33 58
2648 2076 2048 2568 6 36 55
2649 2076 2048 2568 7 33 58
2650 2072 2048 2568 6 34 59
2651 2072 2048 2568 5 32 57
2652 2072 2048 2568 7 34 59
2653 2076 2048 2568 6 35 58
2654 2076 2048 2568 3 32 57
2655 2076 2048 2568 4 35 58
2656 2076 2048 2568 6 35 59
2657 2076 2048 2568 4 34 56
2658 2076 2048 2568 6 33 57
2659 2076 2048 2568 6 34 57
2660 2072 2048 2568 5 35 57
2661 2072 2048 2568 5 32 56
2662 2072 2048 2568 6 34 57
2663 2072 2048 2568 7 36 57
2664 2072 2048 2568 6 33 58
2665 2072 2048 2568 7 34 58
2666 2072 2052 2568 4 35 59
2667 2072 2048 2568 5 33 58
2668 2076 2048 2568 6 36 57
2669 2072 2048 2568 8 35 58
2670 2076 2048 2568 6 34 57
2671 2076 2048 2568 4 33 59
2672 2076 2048 2568 3 32 55
2673 2072 2048 2568 5 33 58
2674 2076 2048 2568 5 33 57
2675 2076 2048 2568 7 33 57
2676 2076 2048 2568 6 33 56
2677 2076 2048 2568 5 35 57
2678 2076 2048 2568 7 35 58
2679 2076 2048 2568 5 33 58
2680 2076 2048 2568 5 35 58
2681 2076 2048 2568 5 35 57
2682 2076 2048 2568 6 33 58
2683 2076 2048 2568 5 32 58
2684 2072 2048 2564 5 34 58
2685 2072 2048 2564 6 35 58
2686 2072 2048 2568 8 34 58
2687 2076 2048 2564 4 35 58
2688 2072 2048 2564 6 34 58
2689 2076 2048 2564 5 34 59
2690 2072 2048 2564 6 33 57
2691 2072 2048 2568 6 35 58
2692 2076 2048 2564 6 31 57
2693 2076 2048 2568 6 36 57
2694 2076 2048 2568 5 33 58
2695 2076 2048 2568 5 34 57
2696 2076 2048 2568 7 33 57
2697 2076 2048 2568 9 34 57
2698 2076 2048 2568 5 35 59
2699 2076 2048 2568 7 35 58
2700 2076 2048 2568 6 35 57
2701 2072 2048 2568 5 32 59
2702 2072 2048 2568 5 32 58
2703 2072 2048 2568 7 34 59
2704 2072 2048 2568 5 34 57
2705 2072 2048 2568 6 35 58
2706 2076 2048 2568 5 35 59
2707 2072 2048 2568 6 33 58
2708 2072 2048 2568 7 33 58
2709 2072 2048 2564 4 36 57
2710 2076 2048 2564 5 33 56
2711 2076 2048 2564 6 33 57
2712 2076 2048 2564 6 33 58
2713 2076 2048 2564 8 34 58
2714 2076 2048 2564 5 34 58
2715 2076 2048 2564 6 32 59
2716 2076 2048 2568 6 37 58
2717 2076 2048 2568 5 33 56
2718 2076 2048 2564 3 34 58
2719 2076 2048 2568 7 32 57
2720 2072 2048 2568 4 34 57
2721 2072 2048 2568 6 34 59
2722 2072 2048 2568 6 32 57
2723 2072 2048 2568 5 34 58
2724 2072 2048 2568 7 34 57
2725 2072 2048 2568 6 34 57
2726 2072 2048 2568 5 32 57
2727 2072 2048 2568 5 34 55
2728 2072 2048 2568 4 32 58
2729 2072 2048 2568 7 33 59
2730 2076 2048 2568 6 33 58
2731 2076 2048 2568 4 34 57
2732 2072 2048 2568 5 33 60
2733 2076 2048 2568 5 35 57
2734 2076 2044 2568 8 33 58
2735 2076 2044 2568 5 35 58
2736 2072 2044 2568 6 36 59
2737 2072 2048 2564 7 36 58
2738 2072 2048 2564 6 35 58
2739 2076 2048 2564 6 32 58
2740 2076 2048 2564 4 32 56
2741 2076 2048 2564 4 32 58
2742 2072 2048 2564 6 33 57
2743 2076 2048 2564 6 34 60
2744 2076 2048 2568 7 35 59
2745 2076 2048 2568 7 35 58
2746 2076 2048 2568 5 35 58
2747 2076 2048 2568 5 32 58
2748 2076 2048 2568 5 33 57
2749 2076 2048 2568 5 34 58
2750 2076 2048 2568 5 34 57
2751 2076 2048 2568 4 33 57
2752 2076 2048 2568 7 32 58
2753 2076 2048 2568 5 35 57
2754 2076 2048 2564 6 34 57
2755 2076 2048 2564 4 33 57
2756 2072 2048 2564 5 35 57
2757 2076 2048 2564 5 35 58
2758 2076 2048 2564 5 32 59
2759 2076 2048 2568 6 35 57
2760 2076 2048 2564 8 35 58
2761 2076 2048 2564 6 35 56
2762 2076 2048 2568 6 33 57
2763 2076 2048 2568 6 33 60
2764 2076 2048 2564 5 33 57
2765 2076 2048 2564 7 35 58
2766 2076 2048 2568 5 34 57
2767 2076 2048 2568 7 34 57
2768 2076 2048 2568 7 33 57
2769 2076 2048 2568 7 35 56
2770 2076 2048 2568 5 34 56
2771 2076 2048 2568 7 34 57
2772 2076 2048 2568 5 35 56
2773 2076 2048 2568 3 35 58
2774 2076 2048 2568 5 33 57
2775 2076 2048 2568 7 32 59
2776 2076 2048 2568 6 32 56
2777 2076 2048 2568 6 33 57
2778 2076 2048 2568 4 32 56
2779 2072 2048 2568 4 34 58
2780 2072 2048 2568 7 33 59
2781 2076 2048 2568 7 33 57
2782 2072 2048 2568 7 35 58
2783 2076 2048 2568 6 35 59
2784 2076 2048 2564 4 35 58
2785 2076 2048 2568 6 35 57
2786 2076 2048 2568 4 34 57
2787 2076 2048 2568 6 34 57
2788 2076 2044 2568 7 36 57
2789 2076 2048 2568 6 33 58
2790 2076 2048 2568 4 33 58
2791 2072 2048 2568 8 34 57
2792 2072 2048 2568 7 33 57
2793 2076 2048 2568 5 35 58
2794 2072 2048 2568 5 35 57
2795 2072 2048 2568 4 33 57
2796 2072 2048 2568 5 35 58
2797 2072 2048 2568 6 35 57
2798 2076 2048 2568 5 32 58
2799 2076 2048 2568 6 33 57
2800 2076 2048 2568 8 34 57
2801 2076 2048 2568 5 33 59
2802 2076 2048 2568 5 35 58
2803 2076 2048 2568 5 35 58
2804 2076 2048 2568 5 32 58
2805 2076 2048 2568 5 34 58
2806 2076 2048 2568 6 36 58
2807 2076 2048 2568 5 33 58
2808 2076 2048 2568 7 36 56
2809 2072 2048 2568 7 34 57
2810 2076 2048 2564 7 35 58
2811 2072 2048 2564 6 34 59
2812 2076 2048 2564 6 32 57
2813 2076 2048 2564 7 34 58
2814 2072 2048 2564 5 35 58
2815 2072 2048 2564 7 33 58
2816 2076 2048 2564 7 33 59
2817 2076 2048 2564 5 33 58
2818 2072 2048 2564 5 31 58
2819 2072 2048 2568 6 34 57
2820 2076 2048 2564 6 34 57
2821 2076 2048 2564 6 34 58
2822 2076 2048 2564 5 32 58
2823 2076 2048 2564 5 35 58
2824 2076 2048 2564 6 33 57
2825 2076 2048 2564 5 33 57
2826 2076 2048 2564 6 35 59
2827 2076 2048 2564 6 34 58
2828 2076 2048 2564 5 35 57
2829 2076 2048 2568 7 33 58
2830 2072 2048 2568 6 32 59
2831 2072 2048 2568 6 33 57
2832 2072 2048 2568 7 34 57
2833 2072 2048 2568 5 35 59
2834 2072 2048 2568 5 36 56
2835 2072 2048 2568 4 34 59
2836 2072 2048 2564 5 35 56
2837 2072 2048 2564 5 34 57
2838 2072 2048 2564 5 33 59
2839 2072 2048 2564 5 35 57
2840 2072 2048 2568 6 33 57
2841 2072 2048 2568 5 35 58
2842 2072 2048 2568 7 35 58
2843 2072 2048 2568 3 32 56
2844 2072 2048 2568 6 32 58
2845 2076 2048 2568 6 36 59
2846 2072 2048 2568 5 36 58
2847 2072 2048 2568 6 33 57
2848 2072 2048 2568 6 33 59
2849 2076 2048 2568 6 33 59
2850 2076 2048 2568 6 36 58
2851 2076 2048 2568 4 35 58
2852 2072 2048 2568 4 34 56
2853 2076 2048 2568 6 34 57
2854 2076 2048 2568 5 33 57
2855 2076 2048 2568 5 34 57
2856 2076 2048 2564 4 35 59
2857 2076 2048 2564 6 32 58
2858 2076 2048 2564 6 33 56
2859 2076 2048 2564 5 34 58
2860 2076 2048 2564 6 34 59
2861 2076 2048 2564 5 34 58
2862 2076 2048 2564 6 34 57
2863 2072 2048 2564 6 34 59
2864 2072 2048 2564 5 34 58
2865 2072 2048 2568 6 33 56
2866 2072 2048 2568 7 34 58
2867 2076 2044 2568 5 33 57
2868 2076 2048 2568 4 33 59
2869 2076 2048 2568 7 35 58
2870 2076 2048 2564 3 34 57
2871 2076 2048 2568 6 33 58
2872 2076 2048 2568 6 34 58
2873 2076 2048 2564 7 34 57
2874 2076 2048 2564 7 33 57
2875 2076 2048 2564 5 35 56
2876 2072 2048 2564 4 35 56
2877 2072 2048 2564 5 34 58
2878 2076 2048 2564 5 35 58
2879 2072 2048 2564 3 33 58
2880 2072 2048 2564 7 34 58
2881 2076 2048 2568 6 35 57
2882 2076 2048 2564 3 31 58
2883 2076 2048 2564 6 35 58
2884 2076 2052 2568 6 34 59
2885 2076 2048 2564 6 34 58
2886 2076 2048 2568 4 33 58
2887 2076 2048 2568 6 35 56
2888 2076 2048 2568 4 34 58
2889 2072 2048 2568 6 33 56
2890 2072 2048 2568 7 33 58
2891 2072 2048 2568 5 32 59
2892 2072 2048 2568 7 34 58
2893 2072 2048 2568 5 35 57
2894 2072 2048 2568 5 35 57
2895 2072 2048 2568 5 35 58
2896 2072 2048 2568 7 35 57
2897 2072 2048 2568 6 34 59
2898 2076 2048 2568 5 31 58
2899 2076 2052 2568 8 33 58
2900 2076 2048 2568 6 35 59
2901 2076 2048 2568 5 33 57
2902 2076 2048 2568 4 34 59
2903 2072 2048 2568 4 35 55
2904 2072 2048 2564 5 33 56
2905 2072 2048 2564 4 33 57
2906 2076 2048 2564 7 32 57
2907 2076 2048 2564 7 32 58
2908 2072 2048 2564 4 35 58
2909 2072 2048 2564 6 32 59
2910 2076 2048 2564 7 32 58
2911 2076 2048 2564 7 34 57
2912 2076 2044 2564 6 33 59
2913 2076 2044 2568 8 36 57
2914 2076 2044 2568 5 34 57
2915 2076 2048 2568 4 33 57
2916 2076 2048 2568 6 34 57
2917 2076 2044 2568 7 33 56
2918 2076 2048 2564 5 35 55
2919 2076 2048 2564 6 32 58
2920 2076 2048 2564 6 33 58
2921 2076 2048 2564 6 34 57
2922 2076 2048 2564 4 33 59
2923 2076 2048 2564 6 36 57
2924 2076 2044 2564 7 37 58
2925 2076 2048 2564 4 34 58
2926 2076 2048 2568 6 33 59
2927 2076 2048 2568 5 31 58
2928 2076 2048 2568 4 34 59
2929 2076 2048 2568 7 35 56
2930 2076 2048 2568 7 34 57
2931 2076 2048 2568 6 32 59
2932 2072 2048 2564 5 36 58
2933 2072 2048 2568 7 35 57
2934 2072 2048 2564 7 34 56
2935 2072 2048 2564 5 32 58
2936 2072 2048 2564 6 35 59
2937 2072 2048 2564 4 34 58
2938 2072 2048 2568 5 35 56
2939 2072 2048 2568 4 33 57
2940 2072 2048 2568 5 31 58
2941 2072 2048 2568 5 33 58
2942 2076 2048 2568 5 34 57
2943 2076 2044 2568 6 35 58
2944 2076 2044 2568 4 33 59
2945 2076 2044 2568 5 32 58
2946 2076 2044 2568 5 33 59
2947 2076 2048 2568 6 32 58
2948 2076 2048 2568 6 34 59
2949 2076 2048 2568 6 37 57
2950 2072 2048 2568 5 33 57
2951 2072 2048 2568 6 33 57
2952 2072 2048 2568 5 33 57
2953 2072 2048 2568 6 34 60
2954 2072 2048 2568 5 34 57
2955 2072 2048 2568 7 34 58
2956 2072 2048 2568 5 35 58
2957 2072 2048 2568 7 34 57
2958 2072 2048 2568 6 37 57
2959 2072 2048 2568 5 33 56
2960 2072 2048 2568 5 34 59
2961 2072 2048 2568 5 34 58
2962 2072 2052 2568 6 36 57
2963 2072 2052 2568 6 33 57
2964 2072 2052 2568 4 34 57
2965 2072 2052 2568 7 35 56
2966 2072 2052 2568 6 32 59
2967 2072 2052 2568 6 35 59
2968 2072 2048 2568 5 33 56
2969 2072 2048 2568 6 32 58
2970 2072 2048 2568 7 33 58
2971 2072 2048 2564 7 35 57
2972 2072 2048 2564 7 34 57
2973 2072 2048 2564 6 33 57
2974 2072 2048 2564 6 34 58
2975 2072 2048 2568 6 34 60
2976 2072 2048 2568 6 33 58
2977 2072 2048 2568 4 35 57
2978 2072 2048 2568 6 33 57
2979 2072 2048 2568 5 33 57
2980 2072 2048 2568 5 35 58
2981 2072 2048 2568 6 34 58
2982 2072 2048 2568 8 36 58
2983 2072 2048 2564 5 32 58
2984 2072 2048 2564 6 32 57
2985 2072 2048 2568 7 35 57
2986 2072 2048 2568 7 32 57
2987 2072 2048 2568 7 34 57
2988 2072 2048 2568 6 34 58
2989 2072 2048 2568 6 32 58
2990 2072 2048 2564 3 32 55
2991 2072 2048 2564 8 32 58
2992 2072 2048 2564 5 33 58
2993 2072 2048 2564 5 34 58
2994 2072 2048 2564 6 32 56
2995 2072 2048 2564 5 33 58
2996 2072 2048 2564 4 35 57
2997 2072 2048 2564 5 34 57
2998 2072 2048 2564 5 35 59
2999 2072 2048 2564 7 32 58
3000 2072 2048 2564 3 34 58
3001 2072 2048 2564 3 34 56
3002 2072 2048 2564 7 33 58
3003 2072 2048 2564 7 36 57
3004 2072 2048 2564 5 34 57
3005 2072 2048 2564 7 34 59
3006 2072 2048 2568 4 33 59
3007 2072 2048 2568 5 34 58
3008 2072 2048 2568 5 34 55
3009 2072 2048 2568 8 35 59
3010 2072 2048 2568 5 35 58
3011 2072 2048 2564 6 36 56
3012 2072 2048 2564 7 34 56
3013 2072 2048 2564 6 34 56
3014 2072 2048 2564 5 31 56
3015 2072 2048 2564 5 34 58
3016 2072 2048 2564 4 34 58
3017 2072 2048 2564 6 35 59
3018 2072 2048 2564 3 34 59
3019 2072 2048 2564 5 35 58
3020 2076 2048 2564 8 34 59
3021 2072 2048 2568 4 35 58
3022 2072 2048 2568 4 34 59
3023 2072 2048 2568 6 34 57
3024 2072 2048 2568 5 34 57
3025 2072 2048 2564 3 37 57
3026 2072 2048 2564 5 35 57
3027 2072 2048 2568 8 34 58
3028 2072 2048 2564 7 34 57
3029 2072 2048 2564 4 32 57
3030 2072 2048 2568 6 33 58
3031 2072 2048 2568 4 35 56
3032 2072 2048 2568 5 33 57
3033 2072 2048 2568 7 35 56
3034 2076 2052 2568 4 35 57
3035 2076 2048 2568 5 34 57
3036 2076 2052 2568 5 33 58
3037 2072 2048 2568 5 34 58
3038 2072 2048 2568 5 36 57
3039 2076 2052 2568 7 35 58
3040 2076 2048 2568 6 34 56
3041 2072 2048 2564 6 35 59
3042 2072 2048 2564 7 35 58
3043 2072 2048 2564 4 35 57
3044 2072 2048 2564 5 33 58
3045 2072 2048 2564 7 35 58
3046 2072 2048 2564 6 32 57
3047 2072 2048 2564 6 34 56
3048 2072 2048 2564 7 34 58
3049 2072 2048 2564 6 34 56
3050 2072 2048 2564 6 33 57
3051 2072 2048 2564 6 34 56
3052 2072 2048 2564 7 33 56
3053 2072 2048 2564 5 34 56
3054 2072 2048 2564 7 33 57
3055 2072 2048 2564 6 35 58
3056 2072 2048 2564 4 33 58
3057 2076 2048 2564 6 33 59
3058 2072 2048 2564 6 36 58
3059 2072 2048 2564 6 35 58
3060 2072 2048 2564 5 36 56
3061 2072 2048 2564 5 36 57
3062 2072 2048 2568 4 34 58
3063 2072 2048 2568 6 34 59
3064 2072 2048 2564 5 36 58
3065 2072 2048 2564 6 35 57
3066 2072 2048 2564 5 34 57
3067 2072 2048 2564 6 35 57
3068 2072 2048 2564 2 32 57
3069 2072 2048 2568 5 33 58
3070 2072 2048 2568 7 34 58
3071 2072 2048 2568 6 33 54
3072 2072 2048 2568 4 31 59
3073 2072 2048 2568 5 33 57
3074 2072 2048 2568 6 33 59
3075 2076 2048 2568 6 33 57
3076 2076 2048 2568 5 34 57
3077 2072 2048 2568 6 36 56
3078 2076 2048 2568 5 35 58
3079 2072 2044 2568 4 36 58
3080 2076 2044 2568 6 34 58
3081 2076 2044 2564 5 34 57
3082 2076 2048 2568 5 34 58
3083 2076 2044 2564 6 32 58
3084 2076 2044 2568 7 34 57
3085 2076 2044 2568 4 33 57
3086 2076 2044 2564 4 33 61
3087 2076 2044 2564 6 35 57
3088 2076 2044 2564 5 36 55
3089 2072 2048 2564 5 34 57
3090 2072 2048 2564 5 32 58
3091 2072 2044 2564 6 36 59
3092 2072 2044 2568 5 32 57
3093 2072 2044 2564 6 33 59
3094 2072 2048 2564 6 33 58
3095 2072 2048 2564 5 35 58
3096 2072 2048 2564 5 35 58
3097 2072 2048 2564 6 35 56
3098 2072 2044 2564 6 35 57
3099 2072 2048 2564 6 34 57
3100 2072 2044 2564 5 35 58
3101 2072 2048 2564 5 33 60
3102 2072 2048 2564 7 34 58
3103 2072 2044 2564 4 34 58
3104 2072 2048 2564 3 34 57
3105 2072 2048 2564 6 36 58
3106 2072 2048 2564 6 32 57
3107 2072 2048 2568 5 34 57
3108 2072 2048 2568 6 33 56
3109 2072 2048 2568 5 36 57
3110 2072 2048 2564 4 34 58
3111 2072 2048 2568 4 35 58
3112 2072 2048 2568 7 35 59
3113 2072 2048 2568 4 34 59
3114 2072 2048 2568 5 34 56
3115 2072 2048 2568 6 32 58
3116 2072 2048 2564 8 34 57
3117 2072 2048 2564 5 34 57
3118 2072 2048 2564 4 35 58
3119 2072 2048 2564 5 35 57
3120 2072 2048 2564 6 33 57
3121 2072 2048 2564 5 33 60
3122 2072 2048 2564 5 36 58
3123 2072 2048 2564 5 35 56
3124 2072 2048 2564 7 33 57
3125 2072 2048 2564 4 34 58
3126 2072 2048 2564 5 33 59
3127 2072 2048 2564 6 33 57
3128 2072 2048 2564 4 33 56
3129 2072 2048 2564 4 35 57
3130 2072 2048 2564 4 34 57
3131 2072 2048 2564 3 34 58
3132 2072 2048 2564 5 35 58
3133 2072 2048 2564 5 32 58
3134 2072 2052 2564 6 33 57
3135 2072 2048 2568 6 36 58
3136 2072 2048 2568 3 34 57
3137 2072 2048 2568 6 36 58
3138 2072 2048 2568 7 35 56
3139 2072 2048 2568 7 33 57
3140 2072 2048 2568 7 34 59
3141 2072 2048 2568 5 35 58
3142 2072 2048 2564 7 36 57
3143 2072 2048 2564 6 36 59
3144 2072 2048 2564 5 35 58
3145 2072 2048 2564 5 32 58
3146 2072 2048 2564 4 32 58
3147 2072 2048 2564 4 35 55
3148 2072 2048 2564 7 34 59
3149 2072 2048 2564 4 34 59
3150 2072 2048 2564 5 35 56
3151 2072 2048 2568 6 35 57
3152 2072 2048 2568 5 33 57
3153 2072 2052 2568 6 34 56
3154 2072 2052 2568 7 35 56
3155 2072 2052 2568 7 32 58
3156 2072 2048 2568 7 34 57
3157 2072 2052 2568 5 36 55
3158 2076 2052 2568 4 34 58
3159 2076 2052 2568 5 37 59
3160 2076 2048 2568 6 34 58
3161 2076 2048 2564 3 34 59
3162 2076 2048 2568 5 34 58
3163 2072 2048 2564 4 35 59
3164 2072 2048 2564 6 33 59
3165 2072 2048 2568 7 33 58
3166 2072 2048 2568 5 32 58
3167 2072 2048 2564 4 34 57
3168 2072 2048 2564 4 33 57
3169 2072 2048 2564 6 33 59
3170 2072 2048 2568 4 34 59
3171 2072 2048 2564 4 34 57
3172 2072 2048 2568 4 34 57
3173 2072 2048 2564 6 34 56
3174 2072 2048 2564 5 32 56
3175 2072 2052 2564 6 34 57
3176 2072 2048 2564 5 36 58
3177 2072 2052 2568 5 33 57
3178 2072 2048 2564 6 32 60
3179 2072 2048 2564 7 34 59
3180 2072 2048 2564 4 32 57
3181 2072 2048 2564 6 33 58
3182 2076 2048 2564 6 35 60
3183 2076 2048 2564 5 35 58
3184 2076 2048 2564 6 33 58
3185 2076 2048 2564 5 33 57
3186 2072 2048 2564 6 34 57
3187 2076 2048 2564 4 35 58
3188 2072 2048 2564 6 32 58
3189 2076 2048 2564 7 33 59
3190 2076 2048 2568 5 33 56
3191 2076 2048 2568 5 34 55
3192 2072 2048 2568 4 36 56
3193 2076 2048 2564 6 33 57
3194 2076 2048 2568 7 34 57
3195 2072 2048 2568 5 34 58
3196 2072 2048 2564 6 34 57
3197 2072 2048 2564 7 35 58
3198 2072 2048 2568 3 35 57
3199 2072 2048 2568 6 33 58
3200 2072 2048 2564 5 33 57
3201 2072 2048 2564 4 36 59
3202 2072 2048 2564 5 34 57
3203 2072 2048 2564 7 34 57
3204 2072 2048 2568 7 34 59
3205 2072 2048 2568 4 32 59
3206 2076 2044 2568 5 34 57
3207 2076 2048 2564 4 34 57
3208 2076 2048 2568 4 36 56
3209 2076 2044 2568 5 35 58
3210 2076 2044 2568 5 32 58
3211 2076 2048 2568 4 33 58
3212 2076 2044 2568 6 34 58
3213 2076 2044 2568 7 36 58
3214 2076 2044 2568 5 36 58
3215 2072 2048 2564 5 32 56
3216 2072 2044 2564 5 33 56
3217 2072 2044 2564 5 33 57
3218 2072 2048 2568 5 32 58
3219 2072 2048 2568 6 34 57
3220 2072 2048 2564 5 34 55
3221 2072 2048 2564 5 34 58
3222 2072 2048 2564 5 32 57
3223 2072 2048 2564 8 33 58
3224 2072 2048 2564 8 35 57
3225 2072 2048 2564 6 34 58
3226 2072 2048 2564 6 33 57
3227 2072 2048 2564 4 33 59
3228 2072 2048 2564 6 37 58
3229 2072 2048 2564 5 33 57
3230 2072 2048 2564 6 34 57
3231 2072 2048 2564 5 36 57
3232 2072 2048 2564 5 36 59
3233 2072 2048 2564 5 35 58
3234 2072 2048 2564 6 34 58
3235 2072 2048 2564 4 33 57
3236 2072 2048 2564 5 34 58
3237 2072 2048 2564 5 34 58
3238 2072 2048 2564 4 33 58
3239 2072 2048 2564 8 33 57
3240 2072 2048 2564 5 32 57
3241 2072 2048 2564 4 33 57
3242 2072 2048 2568 4 34 57
3243 2072 2048 2568 6 33 58
3244 2072 2048 2568 6 33 58
3245 2072 2048 2568 6 35 58
3246 2072 2048 2568 6 33 57
3247 2076 2044 2568 4 33 58
3248 2072 2048 2568 7 34 57
3249 2072 2048 2568 7 34 59
3250 2072 2048 2568 5 34 61
3251 2072 2048 2564 6 35 57
3252 2072 2048 2564 5 35 57
3253 2072 2048 2564 3 36 57
3254 2072 2048 2564 5 34 58
3255 2072 2048 2564 5 33 56
3256 2072 2048 2564 4 34 57
3257 2072 2044 2564 4 35 57
3258 2076 2048 2568 5 32 58
3259 2072 2048 2564 6 34 58
3260 2076 2048 2564 5 34 57
3261 2072 2048 2564 5 33 59
3262 2072 2048 2564 4 34 56
3263 2072 2048 2564 4 36 57
3264 2072 2048 2564 6 34 58
3265 2072 2048 2564 7 34 56
3266 2072 2048 2564 5 37 56
3267 2072 2048 2564 5 34 56
3268 2072 2048 2564 4 35 56
3269 2072 2048 2568 3 33 57
3270 2072 2048 2564 4 34 57
3271 2072 2048 2564 6 33 57
3272 2072 2048 2568 7 35 58
3273 2072 2048 2568 4 34 57
3274 2072 2048 2568 6 36 59
3275 2072 2048 2568 4 31 58
3276 2072 2048 2568 7 33 57
3277 2072 2048 2568 4 33 57
3278 2072 2048 2564 6 35 58
3279 2072 2048 2568 5 34 58
3280 2072 2048 2568 5 34 57
3281 2072 2052 2564 5 33 56
3282 2072 2052 2568 5 36 57
3283 2072 2048 2564 7 36 59
3284 2072 2048 2564 4 32 58
3285 2072 2048 2564 5 34 57
3286 2072 2048 2568 7 36 55
3287 2072 2048 2568 7 35 59
3288 2076 2044 2564 4 33 56
3289 2076 2048 2564 7 33 59
3290 2076 2044 2564 4 34 55
3291 2076 2044 2564 5 33 56
3292 2076 2044 2564 5 34 57
3293 2076 2044 2564 5 34 58
3294 2072 2044 2564 6 33 58
3295 2072 2044 2564 5 35 59
3296 2076 2044 2564 6 31 57
3297 2076 2044 2568 4 33 57
3298 2076 2044 2568 6 32 55
3299 2076 2048 2568 8 31 59
3300 2076 2048 2568 5 34 58
3301 2076 2048 2568 6 33 56
3302 2076 2048 2568 6 33 58
3303 2076 2048 2568 4 33 57
3304 2076 2048 2568 2 34 57
3305 2076 2048 2564 4 35 56
3306 2076 2048 2564 5 37 60
3307 2076 2048 2564 6 35 58
3308 2076 2048 2564 6 36 57
3309 2076 2044 2564 6 35 57
3310 2076 2044 2568 5 33 56
3311 2076 2044 2568 6 34 56
3312 2076 2044 2568 7 35 57
3313 2076 2044 2568 5 34 59
3314 2076 2044 2568 6 32 58
3315 2076 2048 2568 5 32 57
3316 2072 2048 2568 7 34 56
3317 2076 2048 2568 5 31 58
3318 2076 2048 2568 4 31 58
3319 2072 2048 2568 6 36 57
3320 2076 2048 2568 6 32 60
3321 2076 2048 2568 7 33 57
3322 2072 2048 2564 5 33 57
3323 2072 2048 2568 6 35 57
3324 2076 2048 2564 4 34 58
3325 2076 2048 2564 6 33 57
3326 2076 2048 2564 4 35 58
3327 2076 2048 2564 4 33 57
3328 2072 2048 2564 5 33 58
3329 2072 2048 2568 5 34 56
3330 2072 2048 2564 5 35 58
3331 2072 2048 2564 4 35 58
3332 2072 2048 2564 6 34 58
3333 2072 2048 2564 5 35 57
3334 2072 2048 2564 4 37 57
3335 2072 2048 2564 4 33 58
3336 2072 2048 2564 3 34 57
3337 2072 2048 2564 6 34 59
3338 2072 2048 2564 5 34 59
3339 2072 2048 2564 5 33 58
3340 2072 2048 2564 4 34 57
3341 2072 2048 2564 6 34 57
3342 2072 2048 2564 5 33 59
3343 2072 2048 2564 7 34 57
3344 2072 2048 2564 7 32 57
3345 2072 2048 2564 6 36 58
3346 2072 2048 2564 5 33 58
3347 2072 2048 2564 5 33 56
3348 2072 2048 2564 6 33 59
3349 2072 2048 2564 5 35 57
3350 2072 2048 2568 4 34 59
3351 2072 2048 2568 5 34 59
3352 2072 2048 2568 7 33 56
3353 2072 2048 2568 5 33 57
3354 2072 2048 2568 5 34 57
3355 2072 2048 2568 5 34 58
3356 2076 2048 2568 5 34 57
3357 2076 2048 2568 5 34 58
3358 2076 2048 2568 5 32 57
3359 2076 2048 2568 6 35 58
3360 2076 2048 2568 4 34 57
3361 2076 2048 2568 5 32 56
3362 2076 2048 2568 7 34 58
3363 2076 2048 2568 4 33 58
3364 2076 2048 2568 4 35 58
3365 2076 2048 2568 6 37 55
3366 2076 2048 2568 3 34 56
3367 2076 2048 2568 5 34 58
3368 2076 2044 2568 7 34 57
3369 2076 2048 2564 4 33 58
3370 2076 2044 2568 6 34 57
3371 2076 2048 2564 3 34 59
3372 2072 2048 2564 6 33 59
3373 2072 2048 2564 5 34 58
3374 2072 2048 2568 5 35 59
3375 2072 2044 2568 5 35 59
3376 2072 2044 2568 5 33 57
3377 2072 2044 2568 5 33 57
3378 2072 2044 2564 3 35 59
3379 2072 2048 2564 5 34 58
3380 2072 2044 2564 5 33 57
3381 2072 2044 2564 7 36 58
3382 2076 2044 2564 5 37 56
3383 2076 2044 2564 5 35 56
3384 2076 2044 2564 5 34 58
3385 2076 2044 2564 6 32 58
3386 2076 2044 2564 4 35 59
3387 2076 2044 2564 6 35 57
3388 2076 2044 2564 5 35 56
3389 2076 2044 2564 6 33 57
3390 2076 2048 2568 5 35 58
3391 2076 2044 2568 7 33 58
3392 2072 2048 2568 4 35 56
3393 2076 2048 2568 5 36 55
3394 2072 2048 2568 5 35 58
3395 2072 2048 2568 5 35 57
3396 2072 2048 2568 5 34 57
3397 2072 2048 2568 4 33 60
3398 2072 2048 2568 6 33 57
3399 2072 2048 2568 7 33 56
3400 2072 2048 2564 5 33 58
3401 2072 2048 2564 5 35 57
3402 2076 2048 2568 6 34 59
3403 2076 2048 2568 3 32 59
3404 2076 2048 2568 4 32 58
3405 2076 2048 2568 4 35 57
3406 2076 2048 2568 5 34 58
3407 2076 2048 2564 7 34 56
3408 2076 2048 2568 5 34 57
3409 2076 2044 2564 6 35 56
3410 2076 2048 2568 5 35 57
3411 2076 2048 2568 4 34 56
3412 2076 2048 2568 7 34 56
3413 2076 2044 2568 5 33 56
3414 2076 2044 2568 4 32 58
3415 2076 2048 2568 6 35 56
3416 2076 2048 2568 6 35 58
3417 2076 2048 2564 5 34 57
3418 2072 2048 2568 4 32 58
3419 2076 2048 2568 6 35 58
3420 2076 2048 2568 5 33 57
3421 2072 2048 2564 6 33 58
3422 2072 2048 2564 7 36 57
3423 2076 2048 2564 6 34 57
3424 2076 2044 2564 5 34 57
3425 2076 2044 2568 4 34 59
3426 2072 2044 2568 5 34 58
3427 2072 2044 2568 6 33 58
3428 2072 2044 2568 5 34 56
3429 2076 2044 2568 6 34 58
3430 2076 2044 2568 5 34 57
3431 2076 2048 2564 5 36 59
3432 2076 2048 2564 4 33 56
3433 2076 2048 2564 5 32 55
3434 2076 2048 2564 5 33 56
3435 2076 2048 2564 6 33 58
3436 2076 2048 2564 7 33 57
3437 2072 2048 2564 5 35 58
3438 2072 2048 2564 6 32 56
3439 2072 2048 2564 5 36 58
3440 2072 2048 2564 6 34 56
3441 2072 2048 2564 6 32 56
3442 2072 2048 2564 8 34 57
3443 2072 2048 2564 4 34 58
3444 2072 2048 2564 7 33 57
3445 2072 2048 2560 5 35 58
3446 2072 2048 2560 5 31 59
3447 2072 2048 2560 6 33 57
3448 2072 2048 2564 8 35 57
3449 2072 2048 2564 5 34 56
3450 2076 2048 2564 4 34 59
3451 2076 2048 2564 6 36 57
3452 2072 2048 2564 5 35 58
3453 2072 2048 2564 6 34 57
3454 2072 2048 2564 6 35 60
3455 2076 2048 2564 6 33 58
3456 2076 2048 2568 6 34 59
3457 2072 2048 2568 4 36 58
3458 2072 2048 2564 4 32 57
3459 2072 2048 2568 3 33 58
3460 2072 2048 2568 4 35 58
3461 2072 2044 2568 7 33 58
3462 2072 2044 2568 7 33 57
3463 2072 2048 2568 5 34 57
3464 2072 2048 2568 4 34 59
3465 2072 2048 2568 7 36 58
3466 2072 2048 2568 5 33 58
3467 2072 2048 2568 6 34 57
3468 2072 2044 2568 4 35 57
3469 2072 2044 2564 6 35 57
3470 2072 2048 2564 7 32 57
3471 2072 2044 2564 6 33 56
3472 2076 2044 2568 5 33 58
3473 2076 2044 2564 7 33 58
3474 2076 2044 2568 5 32 57
3475 2076 2044 2564 6 34 57
3476 2076 2044 2564 4 36 57
3477 2076 2044 2564 4 35 56
3478 2076 2048 2564 4 36 59
3479 2072 2048 2564 6 32 57
3480 2072 2048 2564 6 35 57
3481 2072 2048 2564 5 38 58
3482 2072 2048 2564 5 34 59
3483 2072 2048 2564 3 35 57
3484 2072 2048 2564 5 33 56
3485 2072 2048 2564 5 33 57
3486 2072 2048 2564 6 34 56
3487 2072 2048 2564 5 36 58
3488 2072 2048 2564 7 34 58
3489 2072 2048 2564 4 34 58
3490 2072 2048 2560 4 33 58
3491 2072 2048 2564 5 34 58
3492 2072 2048 2564 7 33 58
3493 2072 2048 2564 7 36 56
3494 2072 2048 2564 3 35 57
3495 2072 2048 2564 6 34 59
3496 2072 2048 2564 7 36 58
3497 2072 2048 2564 4 35 58
3498 2072 2048 2564 6 33 58
3499 2072 2048 2564 6 34 59
3500 2072 2048 2564 8 36 56
3501 2072 2048 2564 7 33 59
3502 2072 2048 2564 5 31 57
3503 2072 2048 2564 7 33 57
3504 2072 2048 2564 6 36 57
3505 2072 2048 2564 6 34 57
3506 2072 2044 2564 4 33 57
3507 2072 2048 2564 6 34 59
3508 2072 2048 2564 7 34 57
3509 2072 2048 2564 5 34 58
3510 2072 2048 2564 3 34 57
3511 2072 2048 2564 5 32 57
3512 2072 2048 2564 7 32 58
3513 2072 2048 2564 4 33 57
3514 2072 2048 2564 8 35 58
3515 2072 2048 2564 5 34 59
3516 2072 2048 2564 8 33 57
3517 2072 2048 2564 6 34 58
3518 2072 2048 2564 6 35 57
3519 2072 2048 2564 5 36 58
3520 2072 2048 2564 7 35 56
3521 2072 2048 2564 6 35 58
3522 2072 2048 2564 4 34 56
3523 2072 2048 2564 5 32 57
3524 2072 2048 2564 5 34 59
3525 2072 2048 2564 5 32 58
3526 2072 2048 2564 6 34 56
3527 2072 2048 2564 5 33 56
3528 2072 2048 2564 6 34 57
3529 2072 2048 2564 5 35 56
3530 2072 2048 2564 6 35 59
3531 2072 2048 2564 5 33 55
3532 2072 2048 2564 5 34 58
3533 2072 2048 2564 6 34 58
3534 2072 2048 2564 6 32 59
3535 2072 2048 2564 5 32 59
3536 2072 2048 2564 5 35 57
3537 2072 2048 2564 4 34 56
3538 2072 2048 2568 4 32 58
3539 2072 2048 2568 6 35 58
3540 2072 2048 2564 6 34 58
3541 2072 2044 2564 4 33 57
3542 2072 2048 2564 7 33 57
3543 2072 2048 2564 7 34 56
3544 2072 2048 2564 5 32 56
3545 2072 2048 2564 3 34 59
3546 2072 2048 2564 4 34 57
3547 2072 2048 2564 6 33 58
3548 2072 2048 2564 7 33 60
3549 2072 2048 2564 6 34 58
3550 2072 2048 2564 6 35 57
3551 2072 2048 2564 4 35 57
3552 2072 2048 2564 5 33 57
3553 2076 2048 2564 5 34 57
3554 2072 2048 2564 5 33 57
3555 2076 2048 2564 6 34 58
3556 2072 2048 2564 3 34 57
3557 2072 2048 2564 6 34 58
3558 2072 2048 2564 5 36 59
3559 2072 2048 2564 5 34 57
3560 2072 2048 2564 6 34 57
3561 2072 2048 2564 5 35 59
3562 2072 2048 2564 6 33 58
3563 2076 2048 2564 6 32 57
3564 2076 2048 2564 4 32 57
3565 2072 2048 2564 7 33 58
3566 2072 2048 2564 6 33 60
3567 2072 2048 2564 6 34 59
3568 2072 2048 2568 5 32 59
3569 2072 2048 2568 5 35 59
3570 2072 2048 2568 5 34 58
3571 2072 2048 2564 5 33 58
3572 2072 2048 2564 4 33 57
3573 2072 2048 2564 6 34 57
3574 2072 2048 2564 5 34 57
3575 2072 2048 2564 5 33 56
3576 2072 2048 2564 4 34 58
3577 2072 2048 2564 6 33 58
3578 2072 2048 2564 5 34 58
3579 2072 2048 2564 6 35 58
3580 2072 2048 2564 3 33 59
3581 2072 2048 2564 5 37 58
3582 2072 2048 2564 6 34 57
3583 2072 2048 2564 3 32 57
3584 2072 2048 2564 6 34 57
3585 2072 2048 2564 5 36 57
3586 2072 2048 2564 4 34 59
3587 2072 2052 2564 5 36 59
3588 2072 2052 2564 4 32 56
3589 2072 2052 2564 5 35 57
3590 2072 2052 2564 5 33 57
3591 2072 2052 2564 5 34 58
3592 2076 2048 2564 5 34 57
3593 2076 2048 2564 6 33 58
3594 2072 2048 2564 5 33 58
3595 2076 2048 2564 4 33 57
3596 2072 2048 2564 4 33 58
3597 2072 2048 2564 6 34 58
3598 2072 2048 2564 5 33 57
3599 2076 2048 2564 6 35 59
3600 2072 2048 2564 5 34 57
3601 2072 2048 2564 6 34 57
3602 2076 2048 2564 5 32 57
3603 2072 2048 2564 5 34 59
3604 2076 2048 2564 7 35 57
3605 2076 2048 2564 5 34 57
3606 2072 2048 2564 4 31 57
3607 2072 2048 2564 4 34 57
3608 2072 2048 2564 6 35 58
3609 2072 2048 2564 5 32 57
3610 2072 2048 2564 4 33 58
3611 2072 2048 2568 6 34 55
3612 2072 2048 2564 4 34 58
3613 2072 2048 2568 3 35 59
3614 2072 2048 2564 5 34 58
3615 2072 2048 2564 5 33 58
3616 2072 2048 2564 6 34 58
3617 2072 2048 2564 6 34 59
3618 2072 2048 2564 4 32 57
3619 2072 2048 2564 5 34 59
3620 2072 2048 2564 5 34 58
3621 2072 2048 2564 5 35 58
3622 2072 2048 2568 4 36 58
3623 2072 2048 2568 5 35 59
3624 2072 2048 2568 4 35 58
3625 2072 2048 2568 4 33 57
3626 2072 2048 2568 6 36 57
3627 2072 2048 2564 6 33 57
3628 2072 2048 2564 6 36 57
3629 2072 2048 2564 6 33 56
3630 2072 2048 2564 6 34 56
3631 2072 2048 2564 5 35 57
3632 2072 2048 2564 5 34 58
3633 2072 2048 2564 6 32 58
3634 2072 2048 2564 6 33 57
3635 2072 2048 2564 6 34 57
3636 2072 2048 2568 5 34 58
3637 2072 2048 2564 6 34 58
3638 2072 2048 2564 6 34 57
3639 2072 2048 2568 6 35 57
3640 2072 2048 2568 4 33 59
3641 2072 2044 2568 5 34 58
3642 2072 2044 2568 6 33 58
3643 2072 2048 2568 6 34 57
3644 2072 2048 2564 6 33 58
3645 2072 2048 2564 5 36 58
3646 2072 2048 2564 3 34 59
3647 2072 2048 2564 6 34 56
3648 2072 2048 2564 6 32 57
3649 2072 2048 2564 5 35 57
3650 2072 2048 2564 6 32 59
3651 2072 2048 2564 4 34 57
3652 2072 2048 2564 4 35 58
3653 2072 2048 2564 6 35 57
3654 2072 2048 2564 5 34 57
3655 2072 2048 2564 5 35 59
3656 2072 2048 2564 5 30 58
3657 2072 2048 2568 5 34 55
3658 2072 2048 2568 6 36 55
3659 2072 2048 2568 6 34 57
3660 2072 2048 2568 5 33 56
3661 2072 2048 2568 5 33 58
3662 2072 2048 2568 6 33 58
3663 2072 2048 2568 5 34 57
3664 2072 2048 2568 6 31 57
3665 2072 2048 2568 3 36 57
3666 2072 2048 2568 5 34 58
3667 2072 2048 2568 6 34 59
3668 2072 2048 2568 8 32 56
3669 2072 2048 2568 6 33 57
3670 2072 2048 2568 6 34 57
3671 2072 2048 2564 6 36 56
3672 2072 2048 2564 5 34 58
3673 2072 2048 2564 5 34 57
3674 2072 2048 2564 4 34 59
3675 2076 2048 2564 5 33 57
3676 2072 2048 2564 7 33 58
3677 2072 2048 2564 6 33 57
3678 2072 2048 2564 4 36 57
3679 2072 2048 2564 6 34 58
3680 2072 2048 2564 4 35 57
3681 2072 2044 2564 5 33 58
3682 2072 2044 2564 6 34 57
3683 2072 2044 2564 4 35 57
3684 2072 2044 2564 6 34 58
3685 2072 2044 2564 6 34 57
3686 2072 2044 2564 4 35 59
3687 2072 2044 2564 5 36 58
3688 2072 2044 2564 5 32 57
3689 2072 2044 2564 4 33 59
3690 2072 2044 2564 4 33 58
3691 2072 2044 2564 4 33 57
3692 2072 2044 2564 5 34 57
3693 2072 2044 2564 4 33 57
3694 2072 2044 2564 6 35 57
3695 2072 2044 2564 7 33 57
3696 2072 2044 2564 4 35 58
3697 2072 2048 2564 4 36 57
3698 2072 2048 2564 5 33 56
3699 2072 2048 2568 4 35 57
3700 2072 2048 2568 5 35 56
3701 2072 2048 2568 5 36 60
3702 2072 2048 2568 6 33 59
3703 2072 2048 2568 5 34 58
3704 2076 2048 2568 6 36 58
3705 2076 2048 2568 4 35 59
3706 2076 2048 2568 4 33 58
3707 2076 2048 2564 6 33 59
3708 2076 2048 2564 6 35 58
3709 2076 2048 2564 4 37 57
3710 2072 2048 2564 5 35 59
3711 2072 2048 2568 4 33 58
3712 2072 2044 2568 5 35 58
3713 2072 2044 2568 4 34 59
3714 2072 2048 2568 6 34 57
3715 2072 2048 2568 5 35 58
3716 2072 2048 2568 6 34 58
3717 2072 2048 2568 6 35 57
3718 2072 2048 2568 6 32 56
3719 2072 2048 2564 5 36 57
3720 2072 2048 2564 4 34 57
3721 2072 2044 2568 5 34 56
3722 2072 2048 2564 5 35 59
3723 2072 2044 2564 6 36 57
3724 2072 2044 2564 6 35 57
3725 2072 2044 2568 5 34 58
3726 2076 2044 2564 3 34 56
3727 2072 2044 2564 6 33 58
3728 2072 2048 2568 6 34 55
3729 2072 2048 2568 5 32 57
3730 2072 2048 2564 4 33 58
3731 2072 2048 2564 6 35 57
3732 2072 2048 2568 5 35 57
3733 2072 2048 2568 6 34 56
3734 2072 2048 2568 3 34 57
3735 2072 2048 2568 4 35 57
3736 2072 2048 2568 4 33 56
3737 2076 2048 2568 5 34 57
3738 2076 2048 2568 5 34 59
3739 2076 2048 2568 6 34 59
3740 2076 2048 2568 5 32 57
3741 2076 2048 2568 4 32 57
3742 2076 2048 2568 7 35 57
3743 2076 2048 2568 4 33 59
3744 2076 2048 2568 6 33 57
3745 2076 2048 2564 4 35 58
3746 2072 2048 2564 2 35 58
3747 2072 2048 2568 6 34 58
3748 2072 2044 2568 6 34 58
3749 2072 2044 2568 5 35 58
3750 2072 2044 2568 7 34 56
3751 2072 2044 2568 4 32 56
3752 2072 2044 2564 3 33 59
3753 2072 2044 2564 6 33 58
3754 2072 2044 2568 2 34 58
3755 2072 2044 2568 5 33 58
3756 2072 2044 2568 5 33 59
3757 2072 2048 2564 4 33 57
3758 2072 2048 2564 8 34 59
3759 2072 2048 2564 5 35 57
3760 2072 2048 2564 5 35 59
3761 2072 2048 2564 7 33 58
3762 2072 2048 2564 6 33 58
3763 2072 2048 2564 6 34 56
3764 2072 2048 2568 5 33 57
3765 2072 2048 2568 6 35 56
3766 2072 2048 2568 5 34 60
3767 2072 2048 2568 5 34 58
3768 2072 2048 2568 6 34 58
3769 2072 2048 2568 4 34 58
3770 2072 2048 2568 3 35 57
3771 2072 2048 2568 6 33 56
3772 2072 2048 2568 4 33 57
3773 2072 2044 2568 6 34 60
3774 2072 2048 2568 4 33 57
3775 2072 2048 2568 5 34 58
3776 2072 2048 2568 3 35 57
3777 2072 2048 2568 5 37 58
3778 2072 2048 2568 5 34 58
3779 2072 2048 2568 5 34 57
3780 2072 2048 2564 5 34 60
3781 2072 2048 2564 7 36 58
3782 2072 2048 2564 5 31 58
3783 2072 2048 2564 3 33 56
3784 2072 2048 2560 4 32 59
3785 2072 2048 2560 7 34 58
3786 2072 2048 2564 6 35 57
3787 2072 2048 2564 5 35 57
3788 2072 2048 2564 5 34 58
3789 2072 2048 2564 7 34 56
3790 2072 2048 2564 4 35 57
3791 2072 2048 2564 5 34 57
3792 2072 2048 2564 3 34 59
3793 2072 2048 2564 7 32 58
3794 2072 2048 2564 5 35 58
3795 2072 2048 2564 6 35 58
3796 2072 2048 2564 5 34 58
3797 2072 2048 2564 4 34 58
3798 2072 2048 2568 6 32 57
3799 2072 2048 2568 6 35 57
3800 2072 2048 2568 5 35 58
3801 2072 2048 2568 4 33 58
3802 2072 2048 2568 6 34 58
3803 2072 2048 2568 6 33 57
3804 2072 2048 2568 6 33 58
3805 2072 2048 2568 4 32 56
3806 2072 2048 2568 4 32 58
3807 2072 2048 2564 4 33 57
3808 2072 2048 2568 6 35 59
3809 2072 2048 2568 5 34 60
3810 2072 2048 2568 4 33 57
3811 2076 2048 2568 6 33 57
3812 2076 2048 2568 8 34 56
3813 2076 2048 2568 4 34 57
3814 2076 2048 2564 5 35 57
3815 2076 2048 2564 6 34 59
3816 2076 2048 2568 6 34 58
3817 2076 2048 2564 7 32 58
3818 2076 2048 2564 4 33 56
3819 2076 2048 2564 6 31 57
3820 2076 2048 2564 5 34 57
3821 2076 2048 2564 6 34 55
3822 2076 2048 2564 4 34 59
3823 2076 2048 2564 3 35 59
3824 2076 2048 2564 4 35 58
3825 2072 2048 2564 6 35 58
3826 2076 2048 2564 5 34 57
3827 2076 2048 2564 5 36 58
3828 2072 2048 2564 5 33 58
3829 2072 2048 2564 4 32 57
3830 2072 2048 2564 5 32 57
3831 2072 2048 2564 5 36 58
3832 2072 2048 2564 6 34 58
3833 2072 2048 2564 5 32 58
3834 2072 2048 2564 6 36 57
3835 2072 2048 2564 6 33 58
3836 2072 2048 2564 4 35 58
3837 2072 2048 2564 5 32 57
3838 2072 2048 2564 4 32 58
3839 2072 2048 2564 5 34 57
3840 2072 2048 2564 5 33 56
3841 2072 2048 2564 6 36 56
3842 2072 2044 2568 6 34 57
3843 2072 2044 2568 6 33 58
3844 2072 2044 2568 6 34 56
3845 2072 2044 2568 5 35 57
3846 2076 2048 2568 6 34 57
3847 2072 2048 2568 3 34 56
3848 2072 2048 2568 4 34 58
3849 2072 2048 2568 5 33 58
3850 2072 2048 2564 6 34 59
3851 2072 2048 2564 6 35 59
3852 2072 2048 2564 7 35 56
3853 2072 2048 2564 7 35 58
3854 2072 2048 2564 6 35 56
3855 2072 2048 2564 5 33 57
3856 2072 2048 2564 5 34 57
3857 2072 2048 2568 3 35 56
3858 2072 2048 2568 6 35 57
3859 2072 2048 2568 3 35 58
3860 2072 2048 2568 3 34 58
3861 2072 2048 2568 5 33 58
3862 2072 2044 2568 5 33 56
3863 2072 2048 2568 5 34 59
3864 2072 2048 2568 3 34 58
3865 2072 2048 2568 5 32 57
3866 2072 2048 2568 3 33 59
3867 2072 2048 2564 5 35 57
3868 2072 2048 2568 4 33 58
3869 2072 2048 2564 7 34 59
3870 2072 2048 2564 6 32 57
3871 2072 2048 2564 6 33 57
3872 2072 2048 2564 6 34 56
3873 2072 2048 2564 8 34 58
3874 2072 2048 2564 5 34 61
3875 2072 2044 2564 3 33 57
3876 2076 2044 2564 5 34 59
3877 2076 2044 2564 6 32 59
3878 2076 2044 2564 7 34 60
3879 2076 2048 2568 5 34 56
3880 2076 2048 2568 4 34 58
3881 2076 2044 2564 5 33 58
3882 2076 2044 2568 4 33 57
3883 2076 2044 2568 6 35 57
3884 2076 2048 2568 4 35 57
3885 2072 2044 2564 5 34 57
3886 2072 2044 2564 6 33 56
3887 2072 2044 2564 4 33 57
3888 2072 2044 2564 5 35 57
3889 2072 2044 2568 5 34 58
3890 2072 2048 2568 5 34 56
3891 2072 2048 2568 5 33 56
3892 2072 2048 2568 5 31 57
3893 2072 2048 2568 6 36 60
3894 2072 2048 2568 4 34 56
3895 2072 2048 2568 6 35 57
3896 2072 2048 2568 5 34 57
3897 2072 2048 2568 4 34 58
3898 2072 2048 2564 5 35 57
3899 2072 2048 2564 6 32 57
3900 2072 2048 2564 4 35 58
3901 2072 2048 2564 5 34 57
3902 2072 2048 2564 6 34 59
3903 2072 2048 2568 4 32 58
3904 2072 2048 2568 3 36 58
3905 2072 2048 2564 7 33 59
3906 2072 2048 2564 5 32 58
3907 2072 2048 2564 4 34 57
3908 2072 2048 2564 6 34 57
3909 2072 2048 2568 4 34 56
3910 2072 2048 2568 5 33 58
3911 2072 2048 2568 5 35 57
3912 2072 2048 2568 5 34 57
3913 2072 2048 2568 4 34 56
3914 2072 2048 2568 7 35 56
3915 2072 2048 2568 5 35 59
3916 2072 2048 2568 6 33 57
3917 2072 2048 2568 6 35 56
3918 2072 2044 2564 6 33 58
3919 2072 2044 2564 5 34 58
3920 2072 2044 2564 5 34 57
3921 2072 2044 2564 4 33 59
3922 2072 2048 2564 6 34 58
3923 2072 2048 2564 5 34 59
3924 2072 2048 2564 6 35 58
3925 2072 2048 2564 5 35 57
3926 2072 2048 2564 5 35 57
3927 2072 2048 2564 6 32 57
3928 2072 2048 2564 6 35 58
3929 2072 2048 2564 4 32 56
3930 2072 2048 2564 6 32 57
3931 2072 2048 2564 4 36 58
3932 2072 2048 2564 4 34 58
3933 2072 2048 2564 5 32 57
3934 2072 2048 2568 5 34 58
3935 2072 2048 2568 5 34 59
3936 2072 2048 2568 5 34 58
3937 2072 2048 2568 6 36 56
3938 2072 2048 2568 5 33 58
3939 2072 2048 2568 6 34 58
3940 2072 2048 2564 4 32 58
3941 2072 2048 2568 7 32 56
3942 2072 2048 2568 4 35 59
3943 2072 2048 2568 5 34 56
3944 2072 2052 2568 6 31 58
3945 2072 2052 2568 7 34 58
3946 2072 2052 2568 6 33 58
3947 2072 2052 2568 5 33 58
3948 2072 2052 2568 3 33 56
3949 2072 2052 2568 4 32 58
3950 2072 2052 2568 6 34 59
3951 2072 2048 2568 7 35 59
3952 2072 2048 2568 5 34 58
3953 2072 2048 2564 6 35 58
3954 2072 2048 2564 7 34 58
3955 2072 2048 2564 4 34 57
3956 2072 2048 2564 5 33 57
3957 2072 2048 2564 5 35 59
3958 2072 2048 2564 6 35 57
3959 2072 2048 2564 6 33 58
3960 2072 2048 2564 5 33 57
3961 2072 2048 2564 4 33 57
3962 2072 2048 2564 6 35 58
3963 2072 2048 2564 4 33 57
3964 2072 2048 2564 4 33 58
3965 2072 2048 2568 6 32 57
3966 2072 2048 2564 5 34 58
3967 2072 2048 2568 6 36 57
3968 2072 2048 2568 5 34 58
3969 2072 2048 2568 3 33 57
3970 2072 2048 2568 5 33 57
3971 2072 2048 2564 7 34 57
3972 2072 2048 2564 5 34 58
3973 2072 2048 2564 4 34 57
3974 2072 2048 2564 5 33 58
3975 2072 2048 2564 5 35 57
3976 2072 2048 2564 5 34 57
3977 2072 2048 2568 4 34 58
3978 2072 2048 2568 6 34 58
3979 2072 2048 2568 4 33 55
3980 2072 2048 2568 5 35 58
3981 2072 2048 2568 4 34 57
3982 2072 2048 2568 3 34 56
3983 2072 2048 2568 4 35 57
3984 2072 2048 2568 4 34 58
3985 2072 2048 2564 5 34 57
3986 2072 2048 2564 6 35 58
3987 2072 2048 2564 6 37 58
3988 2072 2048 2564 5 35 59
3989 2072 2048 2564 7 33 57
3990 2076 2048 2564 5 33 57
3991 2076 2048 2564 4 33 58
3992 2076 2048 2568 6 31 57
3993 2076 2048 2564 6 34 59
3994 2076 2048 2564 5 31 57
3995 2076 2048 2568 7 35 57
3996 2076 2048 2564 4 33 58
3997 2076 2048 2564 7 35 58
3998 2076 2048 2564 8 36 58
3999 2072 2048 2564 5 34 57
4000 2072 2048 2564 5 35 57
4001 2076 2048 2564 5 34 58
4002 2072 2048 2564 6 34 59
4003 2072 2048 2564 5 32 58
4004 2072 2048 2564 5 35 59
4005 2072 2048 2564 6 35 59
4006 2072 2048 2564 7 33 56
4007 2076 2048 2564 5 34 58
4008 2076 2048 2568 6 33 59
4009 2076 2048 2568 6 31 56
4010 2076 2048 2568 5 32 57
4011 2076 2048 2568 7 36 58
4012 2076 2048 2568 4 35 59
4013 2076 2048 2568 5 35 59
4014 2072 2048 2568 5 36 56
4015 2072 2048 2568 4 34 57
4016 2072 2048 2568 5 33 57
4017 2072 2048 2568 6 32 59
4018 2072 2048 2568 6 32 56
4019 2072 2048 2568 6 35 56
4020 2072 2048 2568 5 37 57
4021 2072 2048 2568 4 36 58
4022 2072 2048 2568 5 34 57
4023 2072 2048 2568 4 34 56
4024 2072 2048 2568 5 35 56
4025 2072 2048 2568 6 33 58
4026 2072 2048 2568 4 36 57
4027 2072 2048 2568 4 33 55
4028 2072 2048 2564 6 35 57
4029 2072 2048 2564 5 35 58
4030 2072 2048 2564 6 36 58
4031 2072 2048 2564 4 35 58
4032 2072 2048 2568 4 32 59
4033 2072 2048 2564 5 33 57
4034 2072 2048 2564 6 32 58
4035 2072 2048 2564 6 32 57
4036 2072 2048 2564 6 35 58
4037 2072 2048 2568 6 35 59
4038 2072 2048 2564 4 33 59
4039 2076 2048 2564 5 35 57
4040 2072 2048 2564 5 36 57
4041 2072 2048 2564 7 35 58
4042 2076 2048 2564 6 34 58
4043 2076 2048 2564 4 33 58
4044 2076 2048 2564 4 35 57
4045 2076 2048 2564 5 33 58
4046 2072 2048 2564 5 32 57
4047 2072 2048 2564 5 35 57
4048 2072 2048 2564 7 36 56
4049 2072 2044 2564 6 35 57
4050 2072 2044 2568 3 35 58
4051 2072 2044 2568 4 36 57
4052 2072 2044 2564 3 34 59
4053 2072 2048 2564 6 35 59
4054 2072 2044 2568 7 36 57
4055 2076 2048 2568 6 36 58
4056 2076 2048 2568 4 33 58
4057 2072 2048 2568 5 34 57
4058 2072 2048 2568 5 31 58
4059 2072 2048 2568 6 33 56
4060 2072 2048 2568 5 33 57
4061 2072 2048 2568 4 33 59
4062 2072 2048 2568 5 34 59
4063 2072 2048 2568 3 36 57
4064 2072 2048 2568 4 34 58
4065 2072 2048 2568 5 32 60
4066 2076 2048 2568 4 35 58
4067 2076 2048 2568 5 34 58
4068 2076 2048 2568 5 33 58
4069 2076 2048 2568 5 32 59
4070 2076 2048 2568 6 34 58
4071 2076 2048 2568 6 33 58
4072 2076 2048 2568 4 33 59
4073 2076 2048 2564 5 34 59
4074 2076 2048 2564 4 35 59
4075 2076 2048 2564 5 35 56
4076 2076 2048 2564 4 35 56
4077 2076 2048 2564 5 32 57
4078 2076 2048 2564 5 34 58
4079 2072 2048 2564 5 34 57
4080 2072 2048 2568 6 35 58
4081 2072 2048 2568 6 36 56
4082 2072 2048 2568 5 36 58
4083 2076 2048 2568 6 33 59
4084 2076 2044 2564 6 34 58
4085 2076 2044 2564 4 34 58
4086 2076 2044 2564 7 33 57
4087 2076 2048 2564 6 33 57
4088 2076 2044 2564 5 36 58
4089 2076 2044 2564 7 35 57
4090 2076 2048 2564 7 33 59
4091 2076 2048 2568 3 33 58
4092 2076 2048 2568 5 33 57
4093 2076 2048 2568 5 34 56
4094 2072 2048 2568 6 33 58
4095 2072 2048 2568 7 36 58
4096 2072 2048 2568 5 34 58
4097 2072 2048 2568 4 34 57
4098 2072 2048 2568 5 34 58
4099 2072 2048 2568 4 33 58
4100 2072 2048 2568 4 35 58
4101 2076 2048 2568 6 36 56
4102 2072 2048 2568 5 35 57
4103 2076 2044 2568 5 33 57
4104 2076 2044 2568 6 36 57
4105 2076 2044 2568 2 34 59
4106 2076 2044 2568 5 33 57
4107 2076 2044 2568 8 33 59
4108 2076 2048 2568 5 36 57
4109 2076 2048 2568 6 33 58
4110 2076 2048 2568 7 32 58
4111 2076 2048 2568 7 35 58
4112 2076 2048 2564 6 37 58
4113 2076 2048 2564 6 36 58
4114 2076 2048 2564 4 35 57
4115 2076 2048 2564 6 30 59
4116 2076 2048 2564 6 33 58
4117 2076 2048 2568 4 31 57
4118 2072 2048 2568 4 34 56
4119 2072 2048 2568 5 35 59
4120 2072 2048 2568 5 35 58
4121 2072 2048 2564 4 34 58
4122 2072 2048 2564 5 35 58
4123 2072 2044 2564 6 35 57
4124 2072 2044 2564 5 35 57
4125 2072 2044 2564 4 36 58
4126 2072 2044 2564 6 34 57
4127 2072 2044 2564 4 33 58
4128 2076 2044 2564 3 32 59
4129 2072 2044 2564 3 33 57
4130 2076 2044 2564 5 35 57
4131 2076 2044 2568 5 35 58
4132 2076 2044 2568 5 33 56
4133 2076 2044 2568 4 33 58
4134 2072 2044 2564 5 34 57
4135 2072 2048 2564 4 32 55
4136 2072 2048 2564 4 35 56
4137 2072 2048 2564 6 34 57
4138 2072 2048 2564 6 34 56
4139 2072 2048 2564 5 33 58
4140 2072 2048 2564 7 32 57
4141 2076 2048 2564 5 33 57
4142 2076 2048 2564 5 34 57
4143 2076 2048 2564 5 34 58
4144 2076 2048 2564 4 34 57
4145 2072 2048 2568 4 36 58
4146 2076 2048 2568 4 34 58
4147 2076 2048 2568 5 33 58
4148 2072 2048 2568 7 34 58
4149 2072 2048 2568 5 34 59
4150 2072 2048 2568 4 35 59
4151 2072 2048 2568 6 34 57
4152 2072 2048 2568 5 36 57
4153 2072 2048 2568 4 34 59
4154 2072 2048 2568 6 34 58
4155 2072 2048 2568 6 37 58
4156 2072 2048 2564 6 33 57
4157 2072 2048 2564 6 34 58
4158 2072 2048 2564 5 34 58
4159 2072 2048 2564 5 33 58
4160 2072 2048 2564 2 36 57
4161 2072 2048 2564 3 34 58
4162 2072 2048 2564 5 34 58
4163 2072 2048 2564 2 33 58
4164 2072 2044 2568 5 33 56
4165 2072 2044 2568 6 34 57
4166 2076 2044 2568 5 33 58
4167 2076 2044 2568 6 35 58
4168 2076 2044 2568 4 33 56
4169 2076 2044 2568 5 34 58
4170 2076 2048 2568 5 32 57
4171 2076 2044 2568 5 35 59
4172 2076 2044 2568 5 35 57
4173 2076 2044 2568 5 34 57
4174 2076 2048 2568 5 35 58
4175 2076 2044 2568 6 34 56
4176 2076 2044 2568 6 34 56
4177 2076 2044 2568 5 34 57
4178 2076 2044 2568 4 34 57
4179 2076 2044 2564 5 33 57
4180 2076 2044 2564 7 34 59
4181 2072 2044 2568 5 34 57
4182 2072 2044 2568 6 36 57
4183 2072 2048 2568 5 34 59
4184 2072 2048 2568 3 32 57
4185 2076 2048 2568 3 34 58
4186 2072 2048 2568 5 32 56
4187 2072 2048 2568 6 33 57
4188 2072 2048 2568 5 36 57
4189 2072 2048 2568 5 36 56
4190 2072 2048 2568 6 34 57
4191 2076 2048 2568 5 35 58
4192 2076 2048 2568 3 36 57
4193 2076 2048 2568 2 34 59
4194 2076 2048 2568 3 35 59
4195 2076 2044 2568 5 35 57
4196 2076 2048 2568 7 35 59
4197 2076 2048 2568 4 32 57
4198 2076 2048 2564 5 33 59
4199 2076 2048 2568 4 32 59
4200 2076 2044 2568 5 34 56
4201 2076 2048 2568 5 34 57
4202 2072 2044 2564 6 33 57
4203 2072 2048 2568 5 34 59
4204 2072 2048 2568 5 35 56
4205 2072 2048 2568 3 32 59
4206 2072 2048 2568 5 34 58
4207 2076 2048 2568 5 33 58
4208 2076 2048 2568 5 35 60
4209 2072 2048 2568 5 35 57
4210 2076 2048 2568 6 34 57
4211 2076 2048 2564 6 35 57
4212 2076 2048 2564 6 35 58
4213 2076 2044 2568 5 33 58
4214 2076 2044 2564 7 34 59
4215 2076 2044 2564 4 35 57
4216 2076 2044 2564 4 35 56
4217 2076 2044 2564 3 35 58
4218 2076 2048 2564 5 36 57
4219 2076 2048 2564 6 33 57
4220 2076 2048 2568 4 34 57
4221 2076 2048 2564 7 33 58
4222 2076 2048 2564 5 34 57
4223 2076 2044 2568 5 35 57
4224 2076 2044 2568 4 32 58
4225 2076 2044 2564 5 33 56
4226 2076 2044 2564 5 33 57
4227 2076 2044 2564 5 33 57
4228 2076 2044 2564 3 35 57
4229 2076 2044 2564 4 33 59
4230 2076 2044 2564 5 34 57
4231 2072 2044 2568 6 33 58
4232 2072 2044 2568 7 34 58
4233 2072 2044 2568 5 35 58
4234 2072 2044 2568 5 35 58
4235 2072 2048 2568 5 34 58
4236 2072 2048 2568 5 32 57
4237 2072 2044 2568 5 34 58
4238 2076 2044 2568 3 34 58
4239 2076 2044 2568 4 35 58
4240 2076 2044 2568 6 35 56
4241 2076 2044 2568 5 35 59
4242 2076 2044 2568 7 34 57
4243 2076 2044 2568 5 34 58
4244 2076 2044 2568 7 35 58
4245 2076 2044 2568 6 35 59
4246 2076 2044 2568 3 33 57
4247 2076 2048 2568 5 34 58
4248 2076 2048 2568 4 36 58
4249 2076 2048 2568 6 34 58
4250 2076 2048 2568 7 35 58
4251 2072 2048 2568 5 34 58
4252 2072 2048 2568 5 34 57
4253 2076 2048 2564 5 32 59
4254 2072 2048 2564 3 33 58
4255 2076 2048 2564 5 35 57
4256 2076 2048 2564 5 34 57
4257 2076 2048 2564 5 35 59
4258 2076 2048 2564 4 33 58
4259 2076 2048 2568 6 34 56
4260 2076 2048 2568 4 36 57
4261 2076 2048 2568 7 34 58
4262 2076 2048 2568 7 34 58
4263 2076 2048 2564 6 35 57
4264 2076 2048 2564 6 34 55
4265 2076 2048 2564 5 36 57
4266 2076 2048 2564 3 34 59
4267 2076 2048 2564 7 35 58
4268 2076 2048 2564 6 36 59
4269 2076 2048 2564 4 35 58
4270 2076 2048 2564 3 35 58
4271 2076 2048 2564 3 34 57
4272 2076 2048 2564 4 35 56
4273 2076 2048 2564 7 34 57
4274 2076 2048 2568 4 33 59
4275 2076 2048 2568 5 36 59
4276 2076 2048 2568 5 33 58
4277 2076 2044 2568 5 32 59
4278 2076 2048 2568 5 33 57
4279 2076 2048 2568 6 33 58
4280 2076 2048 2568 7 34 59
4281 2072 2048 2568 5 34 59
4282 2072 2048 2568 4 35 58
4283 2072 2044 2568 6 35 58
4284 2072 2048 2568 6 34 57
4285 2076 2048 2568 4 33 57
4286 2076 2048 2568 5 35 57
4287 2076 2044 2568 5 32 57
4288 2076 2044 2572 3 32 58
4289 2076 2048 2572 3 33 58
4290 2076 2048 2572 6 34 58
4291 2076 2048 2572 5 33 59
4292 2076 2048 2572 5 35 58
4293 2076 2048 2568 6 35 56
4294 2076 2048 2568 4 35 58
4295 2076 2048 2568 3 33 59
4296 2076 2048 2568 4 34 56
4297 2076 2048 2564 6 32 58
4298 2072 2048 2564 5 33 57
4299 2076 2044 2564 5 34 57
4300 2072 2044 2564 6 34 57
4301 2076 2044 2564 4 34 58
4302 2072 2044 2564 6 34 57
4303 2072 2044 2564 6 34 58
4304 2072 2044 2564 6 34 57
4305 2072 2044 2564 5 32 58
4306 2072 2044 2564 4 36 58
4307 2072 2048 2568 5 33 58
4308 2072 2048 2568 4 34 56
4309 2072 2044 2568 5 33 58
4310 2072 2048 2568 5 34 58
4311 2072 2044 2568 3 33 58
4312 2072 2044 2572 6 34 59
4313 2072 2048 2572 6 37 57
4314 2072 2048 2568 6 35 58
4315 2072 2048 2568 5 35 57
4316 2072 2048 2568 6 34 58
4317 2076 2048 2568 5 32 56
4318 2076 2048 2568 5 35 59
4319 2072 2048 2568 5 34 59
4320 2072 2048 2564 5 36 58
4321 2076 2048 2564 6 35 57
4322 2072 2048 2564 5 36 59
4323 2076 2048 2568 4 33 57
